time (ms)	lx (deg)	ly (deg)	rx (deg)	ry (deg)
0.000	10.64257	0.63084	8.15747	-0.18350
3.990	8.02881	0.40574	8.14516	0.63356
7.984	8.47240	-1.09270	8.57068	1.64813
11.984	10.60318	2.51839	7.85641	-0.53016
15.990	11.57555	0.41437	8.56401	-1.29534
19.984	7.54562	-0.16707	8.54066	0.59894
23.983	16.30572	-4.27556	8.05733	1.17005
27.981	11.14596	-0.52938	8.16464	0.39813
31.987	11.81168	-1.67781	8.77262	0.48332
35.983	13.42167	-4.19280	8.04037	0.63247
39.983	11.44940	-3.73696	8.03922	0.87572
43.999	11.76590	-0.49833	8.16099	0.65532
48.009	7.03289	-2.75629	8.41143	0.11101
51.988	11.20775	1.33360	8.29377	1.65393
55.981	11.83931	-0.11467	8.17782	0.64081
59.982	5.30882	0.15340	5.68892	1.42948
63.986	5.04740	1.61687	6.51175	2.15055
67.988	6.81512	0.04826	5.50887	-0.08293
71.985	-0.14434	2.01170	2.65079	1.69189
75.980	4.92698	0.27844	-0.39062	1.84578
79.988	-0.56511	1.32786	-0.17119	1.93605
83.988	-2.07668	1.46988	-0.34816	0.92804
87.987	-1.85251	0.20430	-0.67806	1.48912
91.987	-2.39393	0.64293	-0.35945	1.48880
96.015	4.63785	0.85542	2.46223	1.12443
99.982	-0.58669	1.48016	-0.49115	1.23658
103.981	-0.78746	1.76717	1.21777	1.33974
107.986	1.61143	3.67040	0.09654	1.05756
111.983	-1.28338	0.30154	-3.82292	0.18868
115.982	-0.65047	1.71519	-0.38918	1.28863
119.986	-1.06518	0.84692	-0.03159	0.97869
124.032	-1.02598	1.57898	-0.76431	1.18662
127.994	-0.79533	1.75994	-0.98308	1.70544
131.982	-1.35891	0.86909	-1.53838	1.29331
135.981	0.84920	0.61296	-1.54966	3.48627
139.981	-1.06279	0.58503	-0.39586	1.85757
143.985	1.92999	-0.14345	-1.38461	4.04671
147.981	-1.50847	-2.44370	-0.93242	1.28573
151.981	2.37746	0.10815	-4.10113	1.47191
155.979	-0.56803	-1.67825	-1.74918	1.54087
159.987	3.06328	0.44329	-1.29809	1.23626
163.983	-1.73519	-2.37189	-1.84019	2.65083
167.986	2.62137	-0.44730	-1.69319	1.23713
172.009	-1.27133	-1.35263	-1.55951	1.99764
175.990	0.77414	-1.13379	-0.84702	1.13225
179.980	0.78779	-1.50338	-0.70092	3.62839
183.979	1.07530	-0.83644	-0.81769	1.81918
187.984	-0.64067	-0.47465	-1.21462	2.55285
192.034	-0.43031	0.24672	-1.34718	1.90344
195.990	-0.44321	-1.76505	-1.63881	2.55412
199.978	-0.30061	-0.07378	-1.78788	1.91623
203.985	3.07520	-1.69319	-1.35340	1.95408
207.982	-0.12302	-1.15682	-1.86754	-0.26808
211.984	3.17131	-0.02092	-1.21038	2.07676
215.978	-0.25296	-0.48556	-1.31726	1.38254
219.985	-0.35561	0.35551	-1.14866	1.55521
223.981	-0.43971	-0.14877	-1.46983	1.38536
227.981	-0.74895	0.60249	-0.95765	1.63711
231.979	-0.64044	0.27926	-1.35965	1.21155
235.985	-0.64069	0.88359	-0.98050	3.61014
239.982	-0.55143	0.55961	3.39742	-1.76415
243.979	-0.82061	1.84623	-1.04940	2.59091
247.983	-1.14027	1.18746	-1.38478	2.74786
251.990	-0.52982	1.16221	-1.34234	4.33485
255.979	0.04981	0.01073	0.38700	1.82384
260.010	-0.05869	-0.44974	-1.35298	2.29338
263.988	-0.09761	0.07606	-1.88653	1.96763
267.978	-0.38978	-0.39012	-0.82707	2.23813
271.984	0.19010	-0.04204	-3.65440	1.67802
275.979	-0.59590	-0.37420	-1.42935	2.17112
280.003	0.23254	-0.33148	-0.39464	1.94246
283.988	-0.75898	-0.38639	-0.73928	1.93272
287.978	-0.52111	-0.29663	-0.82310	1.55144
291.986	-0.02365	-0.43088	-0.48505	1.48852
295.985	3.51112	-0.49085	0.18655	1.91048
299.988	-0.21738	-0.29476	0.81903	1.30539
303.981	1.50534	-0.28273	1.52216	1.58255
308.011	2.09861	-0.34035	0.03976	1.53096
311.976	0.38057	-0.13060	0.80421	1.08900
315.981	0.51416	-0.06699	1.02144	0.89366
319.981	1.90666	-0.11099	0.62141	1.54858
323.978	1.49274	-0.00020	0.03914	1.21512
327.998	1.95780	0.32486	1.02508	1.23494
331.988	1.02419	-0.03916	0.46592	0.91697
335.985	2.85643	2.23945	1.01915	0.20443
339.984	5.12058	-0.33514	1.18569	0.17125
343.977	-0.60811	-0.39592	0.56692	0.68686
347.980	1.57436	-0.16106	1.48089	0.77226
351.979	1.62564	-0.23840	0.34665	0.96816
355.976	1.89089	0.15696	-0.39469	1.20090
359.983	0.89905	-0.26563	0.82272	0.92555
363.979	1.46683	-0.41625	-0.30185	0.75220
367.978	2.44071	-0.69367	0.31521	1.30622
371.977	2.43159	-0.41917	0.41271	1.21223
375.985	2.69767	-0.69512	0.15578	1.18580
379.980	1.23779	-0.66776	0.09937	1.47566
383.979	2.36780	-0.08960	-0.18725	1.51993
387.973	2.69572	-0.93641	-0.01504	0.90115
391.978	2.75876	-0.83902	0.32091	1.28424
395.979	1.06570	0.29533	0.34556	1.16187
399.980	1.93519	0.07038	-0.16645	0.75937
403.980	3.21429	-0.91782	0.38923	1.08960
407.976	1.40430	-1.50302	0.28438	0.83372
411.980	1.28792	4.17124	0.45999	0.70240
415.979	2.56572	0.02902	0.36643	0.46379
419.982	3.08518	-0.89139	0.44314	0.25477
423.976	1.91506	-0.30125	0.36650	0.62169
427.980	1.67544	0.62640	0.46808	0.25169
431.975	1.43081	0.55015	0.48086	0.36454
435.975	-2.30058	-5.11318	0.50895	0.16708
439.981	1.21278	-1.47777	0.18504	0.16455
443.978	-0.88915	1.11265	0.26155	0.31933
447.976	3.73149	1.15509	0.43728	0.15138
451.976	3.13895	1.87409	0.53964	0.10024
455.980	2.21430	-1.09284	0.51260	0.09204
459.981	2.98636	-4.16514	0.10664	0.10454
463.993	0.86873	-1.64288	-0.05036	0.26390
467.982	1.31369	-1.76878	0.48736	0.19702
471.978	1.71640	-2.12528	0.56225	0.27787
475.978	2.73947	-1.71207	0.28322	0.37337
479.973	1.89451	-1.71577	0.39869	0.41285
483.849	0.87272	-3.43909	0.09389	0.48698
487.850	0.54739	-1.95751	0.05812	0.86727
491.855	1.32081	-1.35811	0.37000	0.77133
495.850	3.16203	-1.88694	0.09150	0.95737
499.850	2.69896	-2.80879	0.08455	0.85743
503.855	2.24490	-3.11301	-0.03690	0.97538
507.857	2.24027	-0.99961	1.25857	0.92406
511.857	0.44917	-0.83264	0.14149	0.77440
515.850	2.26202	-2.88583	-0.05852	0.48417
519.850	1.72567	-3.23510	-0.08713	0.24198
523.850	0.88413	-2.56708	-0.16191	0.48194
527.855	0.78302	-2.72032	0.00591	0.14507
531.897	0.28510	-1.25618	0.23567	0.52648
535.857	0.33692	-2.86114	-0.30942	1.25494
539.851	-1.29171	-0.42143	-1.40155	2.15085
543.851	0.10761	-1.37489	-0.64905	0.06194
547.856	-1.70291	-0.62334	-3.57184	0.86722
551.851	-4.70670	2.32474	-4.70175	2.67605
555.851	-1.97986	0.74891	-4.01611	1.73372
559.846	-2.61875	2.53939	-5.34744	2.17078
563.853	-3.30544	-0.46320	-5.31229	2.82147
567.848	-4.14396	0.41860	-5.10689	3.73813
571.850	-3.20699	-0.08403	-4.99999	3.46855
575.849	-4.09189	0.56329	-5.02415	2.83295
579.853	-6.34724	2.02958	-5.22362	2.96503
583.851	-5.38494	2.45268	-5.82707	2.37334
587.849	-6.81918	3.75216	-4.56461	2.87219
591.879	-2.42807	0.57924	-4.97556	2.94969
595.849	-3.05845	0.82723	-5.31120	3.52464
599.880	-3.33040	1.91086	-5.88415	3.91520
603.856	-3.76141	3.45112	-5.85991	2.53857
607.844	-3.54279	3.66203	-5.52598	3.27207
611.853	-4.18968	0.57737	-4.82116	2.99850
615.850	-4.78952	0.71629	-5.09064	3.02660
619.845	-3.24417	0.48015	-6.45461	4.02642
623.851	-3.58536	2.00255	-6.34292	2.79073
627.850	-4.72053	3.36556	-5.79099	2.98023
631.853	-3.86420	1.46532	-5.75018	3.36989
635.847	-5.21343	1.03008	-5.88564	3.86241
639.852	-5.38717	1.32369	-6.37047	4.52711
643.848	-5.56871	2.72636	-5.75991	2.78478
647.848	-4.30539	0.66838	-5.08409	3.25247
651.845	-4.52555	0.57431	-5.14490	4.11898
655.852	-3.35691	1.43250	-6.55440	4.50714
659.848	-5.22613	1.07892	-6.61509	2.64528
663.849	-5.65027	3.04294	-5.77858	3.02256
667.877	-4.95021	1.88898	-6.16280	4.28962
671.865	-5.87255	1.26189	-6.72820	3.27879
675.850	-6.21034	2.05330	-5.65943	3.00183
679.846	-5.66111	1.02076	-5.11519	3.91657
683.853	-5.90909	1.81408	-5.65056	4.56777
687.850	-4.65932	2.12797	-6.07228	2.81553
691.844	-3.85437	1.58919	-6.05550	3.95458
695.852	-4.36464	2.07920	-6.23734	4.60070
699.849	-6.43042	2.13442	-5.84667	2.35895
703.849	-6.30002	1.99732	-6.23979	3.45118
707.844	-6.49925	1.54681	-5.57259	4.45308
711.851	-4.32471	1.80147	-6.02178	3.96673
715.867	-5.04405	2.11030	-5.59568	2.50323
719.853	-4.62118	1.66270	-6.08446	3.97296
723.843	-6.06205	1.42669	-5.87614	4.77527
727.850	-5.85961	1.83500	-4.83072	3.99049
731.852	-5.07791	1.81821	-5.83233	2.74085
735.850	-4.33606	1.76389	-5.66393	3.73865
739.854	-5.83586	1.41695	-5.64894	4.08646
743.881	-6.12480	1.72509	-5.65961	4.30753
747.847	-6.29185	1.88017	-5.64255	4.45555
751.844	-5.22512	1.70474	-5.77109	3.86908
755.854	-4.89286	1.24479	-5.82464	3.20631
759.847	-5.24279	1.47056	-5.65912	3.32902
763.846	-5.69794	2.41138	-5.53505	3.08045
767.843	-4.87527	1.51890	-5.80685	3.08613
771.848	-5.57031	1.88421	-5.67944	3.28693
775.847	-5.89124	2.11213	-5.87550	3.13906
779.847	-6.11508	2.00395	-5.50395	3.28678
783.842	-2.81236	0.52233	-5.92940	3.48932
787.849	-5.42228	0.42544	-5.95663	3.75328
791.844	-5.45191	0.52982	-5.61465	3.62268
795.850	-5.13806	1.66066	-5.72379	3.43346
799.853	-5.68981	0.68841	-5.58238	3.31701
803.882	-10.60217	1.61421	-6.14688	3.14607
807.847	-6.43307	1.83155	-5.63124	0.85505
811.843	-6.67747	2.08779	-8.99661	3.78339
815.845	-10.46268	1.92596	-9.82361	3.56659
819.850	-10.61452	1.20832	-9.89111	3.06964
823.846	-10.26093	1.62534	-11.17694	2.13130
827.848	-7.34011	0.44344	-11.38664	3.85003
831.849	-10.75656	1.63627	-11.36353	3.51987
835.845	-11.33488	0.91228	-10.98042	2.22973
839.848	-10.46777	0.36589	-11.00443	3.10650
843.844	-11.60461	0.35306	-11.44165	3.68353
847.847	-11.42368	0.09270	-11.27526	3.06583
851.845	-11.70892	0.70594	-11.45002	2.36308
855.846	-11.43448	0.97344	-11.39613	3.98492
859.852	-11.37111	0.75460	-11.50301	3.42008
863.847	-10.20462	0.53237	-11.88311	2.81547
867.844	-11.09059	2.33395	-11.42897	2.42761
871.872	-10.42307	1.10725	-11.47059	3.65260
875.844	-11.87803	0.83655	-11.45338	3.78320
879.855	-11.68860	0.71139	-11.32700	3.46296
883.848	-11.18551	0.74000	-11.54656	2.87551
887.843	-8.55253	0.05182	-11.19932	2.48588
891.850	-10.62461	0.21082	-11.48651	2.50359
895.845	-11.02708	1.32918	-11.52822	3.97114
899.844	-10.95155	1.35739	-11.39158	3.45347
903.847	-11.91778	1.61275	-11.49216	3.38685
907.841	-11.21916	1.94189	-11.52984	3.12599
911.843	-11.43464	1.47895	-11.50942	2.95054
915.847	-11.12362	1.52990	-11.57567	2.72593
919.844	-10.95323	1.53329	-11.47209	3.06333
923.848	-10.92464	0.89371	-11.43843	3.25719
927.851	-10.79459	1.31505	-11.88729	3.50104
931.845	-10.79413	1.65543	-11.75443	3.73570
935.845	-11.07224	1.03629	-11.73041	3.47682
939.853	-10.74022	1.40034	-11.65056	3.39214
943.850	-10.62696	1.02692	-11.61585	3.44709
947.845	-10.32373	1.11921	-11.62963	3.14046
951.845	-10.76808	0.26191	-11.52002	3.39358
955.842	-10.78786	1.14263	-11.45100	2.62378
959.847	-11.64599	0.85224	-11.52774	3.20488
963.849	-10.49440	0.78949	-11.67139	3.45700
967.873	-10.01169	0.87280	-11.92928	4.73272
971.843	-10.53447	0.96772	-11.61006	3.61273
975.845	-10.48377	0.83931	-11.61761	3.80084
979.844	-9.30167	0.93814	-11.77299	4.33062
983.859	-10.37045	1.01321	-11.50236	3.88627
987.846	-10.59529	0.95905	-12.16342	3.22975
991.848	-11.07350	0.88094	-11.49045	3.93738
995.842	-9.92230	0.79711	-11.47479	3.95854
999.842	-9.88613	1.49327	-13.01279	3.76558
1003.839	-11.30324	2.01869	-11.42050	3.54928
1007.865	-10.51192	1.64798	-11.28524	3.61912
1011.847	-10.28203	0.74996	-11.26772	3.21298
1015.842	-10.10918	1.92322	-11.37061	3.58162
1019.843	-11.12503	1.12544	-11.17952	3.39827
1023.844	-11.18262	1.90045	-11.11838	3.33457
1027.846	-11.56374	1.74138	-11.23368	2.71199
1031.846	-11.17861	2.12987	-11.17904	3.34692
1035.843	-10.39465	1.95784	-11.07534	2.96784
1039.840	-11.05256	2.79278	-7.72454	2.43866
1043.845	-10.70471	2.37000	-10.91298	2.29109
1047.847	-10.24557	2.03136	-11.17455	2.53328
1051.840	-10.61229	0.38526	-11.42194	2.58776
1055.844	-10.35003	1.09578	-11.09776	3.10539
1059.840	-9.54242	2.12721	-10.68854	2.41705
1063.839	-11.24096	1.39395	-11.19363	2.80303
1067.847	-8.45247	2.10071	-11.09520	2.48373
1071.842	-8.96499	2.93940	-10.96913	2.48932
1075.847	-10.45610	2.07968	-11.40865	2.41174
1079.841	-10.89803	3.28504	-12.55848	2.70812
1083.840	-12.15645	3.59147	-13.13503	2.64185
1087.850	-14.65395	1.65696	-12.21234	2.81675
1091.843	-12.16292	1.34994	-12.66431	3.53481
1095.840	-11.01524	1.47803	-13.11314	3.66578
1099.844	-11.40386	1.63076	-13.24405	4.21054
1103.842	-12.34787	1.66034	-12.66977	4.09943
1107.841	-12.27434	1.79219	-11.51895	2.75572
1111.847	-14.00125	1.69070	-12.99960	2.14484
1115.843	-13.62591	1.49376	-12.41445	2.53403
1119.839	-12.37598	1.65965	-12.60091	2.14690
1123.837	-11.69359	1.05911	-12.70711	2.72155
1127.846	-11.43162	1.59504	-12.90404	2.63669
1131.845	-11.40746	1.53798	-12.88006	2.54844
1135.844	-11.84328	1.66964	-12.88279	2.87173
1139.839	-11.90756	2.58581	-12.57377	2.86739
1143.867	-12.54864	2.98754	-12.78089	3.13568
1147.848	-12.26455	1.91883	-12.93915	3.51664
1151.840	-11.60842	1.06511	-12.96800	3.47958
1155.840	-12.23922	1.69235	-13.04980	3.35542
1159.845	-12.27332	1.93465	-13.22029	3.40435
1163.843	-12.21241	1.84421	-13.38914	3.44756
1167.873	-12.12756	1.76139	-13.35285	3.39823
1171.843	-12.18372	1.74648	-13.26493	3.56235
1175.846	-12.30083	1.86188	-13.14327	3.56314
1179.837	-13.27835	2.24989	-12.90515	3.71933
1183.836	-12.80966	0.84184	-13.02288	3.76234
1187.842	-12.50572	1.51236	-13.10742	3.81778
1191.838	-13.22072	1.72697	-12.84442	3.77067
1195.838	-13.50056	0.87126	-12.66483	3.89863
1199.842	-12.98857	1.28869	-12.69970	4.02809
1203.839	-13.30830	1.02931	-12.66592	3.98756
1207.840	-12.57044	1.32810	-12.62029	4.01018
1211.992	-13.67782	1.18771	-12.52251	3.84124
1215.845	-13.15875	1.39483	-12.54325	3.73871
1219.837	-13.50720	1.20301	-12.60963	3.97470
1223.836	-13.39992	1.34784	-12.68550	3.95676
1227.841	-13.39182	1.30007	-13.01381	3.88888
1231.838	-13.06344	1.37771	-12.77896	3.82794
1235.842	-13.47395	1.26673	-12.88596	3.80608
1239.843	-12.81261	1.36900	-13.00410	3.77379
1243.838	-12.45083	1.50276	-13.25174	3.70769
1247.838	-13.59891	1.41882	-12.97559	3.65156
1251.836	-13.41951	1.24344	-13.07568	3.55203
1255.845	-13.65702	1.20845	-13.06982	3.69241
1259.840	-14.04629	2.03395	-12.85102	3.77668
1263.839	-13.83767	1.57844	-13.09704	3.69484
1267.836	-14.52567	3.31184	-13.05305	3.61831
1271.841	-13.73643	2.70897	-12.99647	3.59029
1275.839	-15.23646	4.86391	-13.07535	3.60298
1279.861	-15.48119	4.71319	-13.14917	3.65112
1283.841	-13.15715	1.73574	-13.24927	3.64255
1287.836	-14.13493	2.56005	-13.24456	3.34553
1291.837	-14.01627	2.47439	-13.27631	3.70570
1295.843	-13.84230	1.63318	-13.31601	3.76253
1299.842	-12.32025	1.72079	-13.35287	3.78627
1303.840	-12.36537	1.63265	-13.30830	3.71422
1307.836	-13.22709	1.48773	-13.18847	3.73202
1311.836	-13.24901	1.22260	-13.15717	4.01325
1315.839	-11.64430	2.09739	-13.29429	3.99131
1319.839	-12.08407	2.21900	-13.22780	4.00889
1323.839	-12.13989	2.45314	-13.16805	4.35843
1327.838	-11.70590	2.35662	-13.04857	4.22845
1331.840	-11.35017	2.27021	-12.49306	4.58135
1335.838	-9.19967	1.81372	-12.76244	4.45178
1339.713	-11.21508	1.47200	-10.70025	4.02414
1343.716	-12.93740	2.82175	-11.36992	4.09471
1347.734	-11.70376	2.57799	-10.36187	4.46940
1351.714	-12.99677	2.83342	-12.52641	4.29570
1355.714	-13.75090	2.47802	-12.55890	3.92945
1359.709	-13.61358	3.29354	-12.62632	3.67211
1363.715	-12.39442	3.38505	-12.42456	3.78804
1367.714	-12.46969	3.49847	-12.65444	3.64942
1371.713	-12.91218	4.29537	-12.75186	3.44063
1375.711	-11.52815	3.04585	-12.77412	3.52643
1379.710	-12.31049	3.43507	-12.73606	3.43027
1383.720	-11.80397	3.08898	-12.69781	3.54862
1387.782	-11.46892	2.76387	-12.78800	3.54767
1391.718	-11.71511	2.99154	-12.77459	2.98763
1395.714	-11.44907	2.83437	-12.78455	2.95271
1399.709	-11.52672	2.71780	-12.90265	2.69846
1403.708	-11.48020	2.65413	-12.84980	3.21306
1407.707	-11.64830	3.20750	-12.82144	3.11165
1411.713	-11.21732	2.98256	-12.69167	3.33564
1415.733	-11.32027	3.81905	-12.61159	3.45695
1419.715	-11.18100	2.53244	-12.47693	3.56119
1423.713	-11.17625	2.13661	-12.58051	3.65743
1427.720	-10.95815	2.24609	-12.46694	3.89675
1431.707	-11.02560	2.20895	-12.40995	4.08211
1435.714	-11.05443	2.23068	-11.37278	3.58104
1439.712	-11.34127	2.21463	-9.75690	3.95899
1443.710	-11.38204	2.03305	-9.85664	4.15612
1447.708	-11.50446	2.07757	-9.61576	4.21352
1451.711	-11.43305	2.30464	-12.19892	3.89717
1455.711	-11.69552	2.59106	-12.04531	4.11575
1459.709	-11.53548	2.54439	-12.64744	4.13701
1463.706	-11.45336	2.64716	-12.57786	4.03227
1467.718	-11.50503	2.44427	-12.57077	4.06211
1471.709	-11.65646	2.84816	-12.45918	4.20041
1475.709	-13.31509	3.29629	-12.87596	2.87350
1479.708	-11.82656	3.19382	-12.72775	2.89924
1483.712	-11.94888	3.24672	-12.66072	3.79018
1487.718	-11.57984	3.12456	-12.55606	3.92327
1491.710	-11.62151	3.27802	-12.58843	3.82121
1495.708	-11.15281	3.64127	-12.49050	3.92525
1499.711	-12.39977	3.37833	-12.40171	3.86274
1503.711	-11.24884	3.16404	-12.35732	4.54912
1507.708	-10.77761	2.81681	-5.68433	4.93736
1511.717	-10.15783	2.98887	-8.15263	5.27744
1515.709	-8.98615	3.70512	-6.66922	5.61436
1519.707	-5.61116	4.97448	-5.75883	6.00130
1523.713	-5.90011	4.92798	-4.29256	8.92413
1527.709	-4.87739	5.19289	-4.81604	7.12696
1531.710	-4.61701	4.58753	-4.63689	6.13068
1535.706	-4.80551	4.47303	-4.72933	5.97704
1539.711	-4.83474	5.05947	-4.73337	5.11038
1543.709	-4.77158	3.98208	-4.57855	5.78290
1547.706	-4.59729	4.15462	-4.40599	5.95594
1551.715	-4.57608	4.35398	-4.45024	5.77628
1555.711	-4.45922	4.41199	-4.51662	5.86403
1559.708	-4.40882	4.49331	-4.43983	5.79034
1563.705	-4.22372	4.14904	-4.36123	5.97319
1567.712	-3.99126	4.16149	-4.75115	5.97142
1571.709	-4.11016	4.10084	-5.70627	6.35408
1575.712	-3.64392	4.01844	-5.43042	5.93645
1579.707	-3.75603	3.99106	-5.39984	6.05848
1583.712	-3.74024	3.98035	-5.21668	6.08741
1587.707	-3.98326	4.04604	-5.06681	6.11428
1591.711	-4.00247	4.19595	-5.06838	6.13778
1595.721	-3.85128	4.24248	-4.94504	6.23639
1599.708	-4.05066	4.09315	-5.01406	6.36690
1603.708	-4.13552	4.16341	-5.11696	6.48487
1607.711	-4.22942	4.57973	-5.12011	6.63462
1611.706	-4.31326	4.80695	-5.06003	6.62622
1615.707	-4.20978	4.90097	-5.00992	6.83442
1619.727	-4.23268	4.89130	-5.08793	7.04287
1623.707	-4.30304	4.98321	-5.04775	6.94620
1627.710	-4.32437	5.15615	-5.05787	7.22352
1631.707	-4.37359	5.21693	-5.00095	7.33655
1635.712	-4.50027	5.36150	-4.78218	7.05867
1639.703	-4.60964	5.32123	-4.88232	7.02637
1643.709	-4.93940	5.45709	-4.88776	4.76525
1647.705	-4.88705	5.64326	-4.69901	4.79765
1651.706	-4.84112	5.72406	-4.89892	4.84067
1655.705	-5.13796	5.60446	-4.66802	5.33462
1659.710	-5.03533	5.00148	-4.72475	5.12944
1663.706	-5.11359	4.95310	-4.67133	5.60286
1667.705	-4.77954	4.84482	-4.85593	6.05384
1671.703	-4.55184	3.03186	-4.39030	5.45981
1675.720	-4.58266	4.84610	-4.60592	6.30269
1679.708	-4.64226	5.07797	-5.74566	5.89211
1683.704	-4.92893	4.63999	-5.42011	5.48196
1687.724	-4.57830	5.24815	-5.09236	5.47811
1691.709	-4.59164	5.16198	-5.09490	5.66682
1695.709	-4.65986	4.37809	-4.93102	5.89014
1699.704	-4.48991	3.95620	-4.72896	5.92714
1703.710	-4.56597	4.64158	-4.55869	5.89280
1707.705	-4.56397	5.46956	-4.86372	5.94491
1711.703	-4.26301	3.98605	-4.97191	6.69952
1715.709	-3.41474	4.34289	-4.80394	4.47269
1719.711	-4.70170	4.65765	-4.62308	5.89880
1723.709	-4.62419	5.35289	-4.61420	6.17972
1727.703	-4.49506	5.43279	-4.74890	4.24033
1731.708	-4.55147	4.22666	-4.71052	6.09395
1735.707	-4.31669	4.86258	-4.53963	8.19854
1739.704	-4.36404	4.67692	-0.66044	6.63782
1743.709	-1.26200	5.02415	1.09745	6.32751
1747.706	2.10466	5.35449	3.07511	6.08478
1751.705	2.65141	4.79985	4.14702	4.15470
1755.736	5.65565	4.28498	5.90507	4.17818
1759.717	7.93162	-0.33080	7.01487	4.00826
1763.703	9.32383	-1.61829	7.94119	4.03523
1767.708	6.57382	0.30074	8.09516	3.80821
1771.706	6.15134	0.37422	8.24047	3.81449
1775.704	7.54293	0.48028	8.04879	3.66028
1779.702	8.90056	0.19593	8.20415	3.08512
1783.708	8.75087	0.39386	8.71843	3.22502
1787.705	8.52901	-0.04504	8.29008	2.12096
1791.702	8.57066	-0.00315	8.28425	1.84451
1795.708	8.72840	-0.54097	8.33314	2.75950
1799.703	8.78450	-0.76741	8.16299	2.62560
1803.710	9.13255	-0.82243	8.19832	2.53802
1807.709	8.87341	-1.57901	8.03480	2.22482
1811.707	8.75931	-0.56774	7.96062	1.85315
1815.721	8.66292	-0.37118	7.93184	2.40150
1819.700	8.42034	-0.01330	7.88782	2.38151
1823.732	8.28245	-0.92691	7.71572	2.57224
1827.712	8.28933	-5.93725	7.73333	2.37686
1831.705	8.83881	-0.62630	7.79919	2.33232
1835.703	8.30471	-0.28685	7.74642	2.48624
1839.701	8.33076	0.29295	7.80341	2.33756
1843.709	7.97101	0.90362	7.72863	2.48600
1847.719	8.21390	0.70429	7.58573	2.44100
1851.707	8.29598	0.34338	7.63462	2.52305
1855.699	8.52710	-0.15605	7.60070	2.59609
1859.707	8.18932	0.32953	7.61624	2.60732
1863.704	7.95731	0.16068	7.76077	2.51122
1867.700	7.89040	0.00800	7.68934	2.49930
1871.705	8.06730	0.02984	7.71971	2.48443
1875.704	7.45845	0.00256	7.83407	2.49380
1879.707	7.99467	-0.91390	7.50351	2.52517
1883.712	8.02039	-0.71760	7.46841	2.49498
1887.707	7.57327	-0.43224	7.48297	2.59057
1891.732	7.67011	-0.83420	7.51988	2.59500
1895.712	7.95258	-1.12422	7.62850	2.59078
1899.698	7.65766	0.01143	7.74264	2.51467
1903.705	7.47419	-0.35877	7.73930	2.29256
1907.701	7.57949	-0.83935	7.79503	2.29781
1911.704	7.61512	-0.20849	7.76949	2.52559
1915.704	7.26442	0.27556	7.58273	2.44048
1919.702	8.40915	-0.87235	7.56847	2.55845
1923.701	7.93932	0.28573	7.75536	2.39402
1927.714	7.69342	0.55854	7.77924	2.50548
1931.704	6.10472	0.61205	8.09898	2.28514
1935.701	7.75977	0.79638	7.90757	2.18660
1939.698	7.51586	0.41747	7.95738	2.26546
1943.706	7.90555	0.51176	7.65125	2.23506
1947.701	7.77507	0.29178	8.05652	2.37388
1951.703	7.57456	0.68531	7.85682	2.32080
1955.700	7.29345	0.39005	7.75531	2.19040
1959.730	7.23203	0.46647	7.90871	2.07562
1963.707	7.39103	-0.33127	7.74469	2.15663
1967.708	7.51935	-0.39734	7.79980	2.44267
1971.702	7.32004	-0.07820	7.89150	2.28952
1975.699	6.76909	-0.22272	7.93827	2.26618
1979.704	7.25533	-0.88859	7.76318	2.23518
1983.701	7.34296	-0.35565	7.70309	2.20614
1987.718	7.34921	-0.19245	7.70102	2.56019
1991.709	7.33220	0.37368	7.88989	2.23998
1995.708	7.23665	0.56940	7.81454	2.24014
1999.702	7.57998	0.33221	7.71342	2.15543
2003.702	7.44252	0.53780	7.75039	2.58714
2007.706	7.45482	0.41270	7.84825	2.48814
2011.709	7.35471	0.49732	7.99549	2.36733
2015.706	7.47541	0.68626	7.71910	2.25629
2019.719	8.18850	0.68137	5.61809	3.26209
2023.698	7.34392	-0.05831	7.82509	2.20257
2027.722	7.44965	-0.55597	8.17342	1.91068
2031.703	8.04643	-0.02401	8.62928	2.13901
2035.699	12.56347	-4.24144	9.18112	2.14559
2039.698	9.64625	-4.51852	8.46645	1.83938
2043.702	12.42702	-5.34246	9.33606	1.04659
2047.704	14.24928	-8.90606	9.72792	0.35057
2051.704	10.41640	-11.76552	9.66019	0.09960
2055.702	14.04575	-9.01599	9.65220	-0.27937
2059.700	14.53691	-9.42742	9.81971	0.01405
2063.698	12.57555	-9.33345	9.75321	0.47803
2067.695	13.49676	-9.26948	9.81679	0.07336
2071.701	16.61732	-11.44584	9.93800	0.27068
2075.699	13.25362	-10.54311	9.81325	0.44974
2079.700	15.12967	-10.71789	9.82742	0.45616
2083.703	11.89875	-10.78904	9.81267	0.39519
2087.698	13.47244	-10.72959	9.84770	0.32210
2091.702	14.97622	-11.83485	9.77288	0.67154
2095.717	11.26923	-11.56085	9.65281	0.75266
2099.699	13.34479	-12.82075	9.78828	0.62636
2103.697	14.84427	-13.07970	9.87671	0.75086
2107.706	12.52736	-12.73697	9.72303	0.78084
2111.700	13.60732	-13.04725	9.84305	0.70680
2115.696	10.26888	-11.30804	9.90787	0.79983
2119.702	12.20356	-12.89827	9.83007	0.69422
2123.736	13.72121	-13.97150	9.93790	0.85651
2127.706	10.81430	-13.10485	9.94385	0.79590
2131.697	12.62336	-14.15562	10.02762	0.69659
2135.705	-19.99372	-12.32563	10.07283	0.73348
2139.703	-19.99372	-12.35388	9.97630	0.71395
2143.698	-19.99372	-12.27759	10.05531	0.69408
2147.695	-19.99372	-12.21568	10.12585	0.54850
2151.700	-19.99372	-12.18264	10.04437	0.33113
2155.698	-19.99372	-12.13198	9.99631	0.55917
2159.701	-19.99372	-12.14977	10.05296	0.34514
2163.716	-19.99372	-12.12125	9.99342	0.33103
2167.701	-19.99372	-12.11348	10.09138	0.21764
2171.698	-19.99372	-12.07995	10.16055	0.25814
2175.711	NaN	NaN	10.13580	-0.06883
2179.702	NaN	NaN	10.12897	-0.26756
2183.699	NaN	NaN	10.11967	-0.26696
2187.693	NaN	NaN	10.15937	-0.48059
2191.574	NaN	NaN	10.17695	-0.99068
2195.574	NaN	NaN	9.95731	-0.52595
2199.572	NaN	NaN	10.26602	-0.45762
2203.575	NaN	NaN	12.97641	-0.81142
2207.573	NaN	NaN	10.05758	-1.09326
2211.572	NaN	NaN	10.09116	-0.63628
2215.570	NaN	NaN	10.22332	1.56779
2219.575	NaN	NaN	10.31134	-0.14705
2223.578	NaN	NaN	10.11851	-0.04093
2227.576	12.21238	-4.52118	9.91324	1.23703
2231.587	14.42109	-6.84529	10.11743	0.08501
2235.578	NaN	NaN	10.41035	-0.19784
2239.570	NaN	NaN	12.92302	-1.29873
2243.569	NaN	NaN	13.06885	-1.92342
2247.572	NaN	NaN	12.64603	-1.95117
2251.572	NaN	NaN	12.83118	-1.81032
2255.571	NaN	NaN	12.07381	-1.73613
2259.568	NaN	NaN	12.61677	-1.68606
2263.578	NaN	NaN	10.08281	-4.12543
2267.592	NaN	NaN	12.72516	-1.27943
2271.577	NaN	NaN	12.27740	-2.01312
2275.568	NaN	NaN	11.81096	-1.20257
2279.578	NaN	NaN	12.09802	-0.36856
2283.570	NaN	NaN	11.95928	-0.91198
2287.571	NaN	NaN	12.62601	-1.86326
2291.574	NaN	NaN	12.15135	-1.37114
2295.573	NaN	NaN	12.08067	-0.47192
2299.572	NaN	NaN	12.10905	-0.77299
2303.575	NaN	NaN	12.03548	-1.64146
2307.575	NaN	NaN	12.14267	-1.22436
2311.569	NaN	NaN	12.04557	-0.51040
2315.567	NaN	NaN	11.92505	-1.73155
2319.574	NaN	NaN	11.84432	-2.14085
2323.571	NaN	NaN	12.13358	-1.43929
2327.570	NaN	NaN	11.99989	-0.84774
2331.569	NaN	NaN	11.96919	-1.69787
2335.575	NaN	NaN	12.09429	-1.87496
2339.570	NaN	NaN	11.85923	-2.28898
2343.569	NaN	NaN	11.87382	-1.11447
2347.572	NaN	NaN	11.96795	-1.12774
2351.573	NaN	NaN	11.90369	-1.32509
2355.570	NaN	NaN	11.84758	-2.20817
2359.572	NaN	NaN	11.90699	-1.90050
2363.574	NaN	NaN	11.93137	-1.56489
2367.597	NaN	NaN	11.84976	-1.49622
2371.573	NaN	NaN	11.97733	-1.72776
2375.573	NaN	NaN	11.90638	-1.51634
2379.568	NaN	NaN	11.90205	-1.70971
2383.574	NaN	NaN	11.94885	-1.49890
2387.574	NaN	NaN	12.01665	-1.47618
2391.576	NaN	NaN	12.06667	-1.56196
2395.567	NaN	NaN	11.96857	-1.64582
2399.567	NaN	NaN	12.16899	-1.77443
2403.572	NaN	NaN	11.99103	-1.55728
2407.569	NaN	NaN	12.11795	-1.49903
2411.570	NaN	NaN	12.35050	-1.49427
2415.568	NaN	NaN	11.96498	-1.30453
2419.573	NaN	NaN	12.08554	-1.74931
2423.571	NaN	NaN	12.15360	-1.47785
2427.569	NaN	NaN	11.82390	-1.18142
2431.577	NaN	NaN	12.28107	-1.17052
2435.595	NaN	NaN	12.05926	-1.71988
2439.577	NaN	NaN	12.04386	-1.21592
2443.581	NaN	NaN	12.10184	-1.00501
2447.569	NaN	NaN	11.85514	-2.07318
2451.602	NaN	NaN	12.09289	-3.09478
2455.565	NaN	NaN	12.09256	-2.31531
2459.571	NaN	NaN	12.20261	-2.07567
2463.567	NaN	NaN	12.52561	-2.08408
2467.568	NaN	NaN	11.94900	-1.60985
2471.568	NaN	NaN	12.08321	-2.15653
2475.573	NaN	NaN	12.36632	-1.99663
2479.566	NaN	NaN	12.23595	-1.30413
2483.570	NaN	NaN	12.34299	-1.40916
2487.575	NaN	NaN	11.84135	-1.84591
2491.565	NaN	NaN	11.87629	-1.73764
2495.566	NaN	NaN	11.39544	-3.03591
2499.570	NaN	NaN	14.10027	-2.58675
2503.586	NaN	NaN	14.63441	-1.96431
2507.572	NaN	NaN	14.17273	-2.69554
2511.566	NaN	NaN	13.12361	-2.57860
2515.572	NaN	NaN	12.31926	-2.13405
2519.570	16.07322	-7.30541	11.54980	-1.56584
2523.566	17.77412	-8.44403	14.57941	-1.56893
2527.564	NaN	NaN	11.69376	-2.45792
2531.564	15.91913	-8.19180	14.33290	1.19961
2535.570	17.32110	-6.04375	14.39941	0.97769
2539.568	NaN	NaN	16.34396	1.12901
2543.567	NaN	NaN	17.07043	1.30463
2547.563	19.85015	-7.52825	16.19975	1.78973
2551.569	22.04640	-4.23210	15.91119	2.98589
2555.569	21.59958	-2.56925	15.45601	3.94437
2559.566	20.34731	-2.58225	15.77759	3.98702
2563.569	20.16184	-2.16926	15.97280	3.32918
2567.568	19.98675	-2.46024	17.30511	2.49486
2571.589	19.91886	-2.23560	15.92141	3.27466
2575.571	19.80517	-1.91497	15.86663	2.74374
2579.570	20.19138	-2.05184	15.76327	3.01865
2583.566	20.29528	-2.41294	15.89310	2.85546
2587.565	20.45231	-2.34231	15.90534	2.77261
2591.570	20.35719	-2.15357	15.76005	3.20869
2595.571	NaN	NaN	15.68911	3.08941
2599.569	20.17122	-2.28814	15.88952	2.88958
2603.564	20.98363	-3.24331	15.55086	3.08220
2607.569	20.08817	-2.00103	15.89551	2.97426
2611.564	21.10864	-2.20192	15.86613	3.01466
2615.566	NaN	NaN	15.70777	3.07531
2619.569	21.36475	-3.69564	15.91514	3.06781
2623.565	17.96521	-2.12487	15.63458	3.13733
2627.567	21.11987	-2.60716	15.88980	3.19184
2631.564	20.98398	-3.36105	15.71991	3.20830
2635.569	22.25882	-6.98219	15.87763	3.13573
2639.595	20.94202	-3.04613	15.81778	3.21483
2643.576	20.30384	-2.78994	15.73446	3.13673
2647.565	20.63000	-3.23807	15.79062	3.23822
2651.563	23.06958	-4.45282	15.75975	3.14566
2655.563	21.27819	-3.30391	15.70977	3.13520
2659.569	20.95368	-2.85979	15.79427	3.20029
2663.565	19.99548	-2.30726	15.69815	3.07651
2667.566	20.66879	-3.01399	15.92453	3.23919
2671.564	20.26698	-2.54095	17.78719	3.12884
2675.569	20.49953	-2.74349	15.90809	3.29229
2679.567	19.68474	-2.65592	15.80397	3.47919
2683.564	20.72284	-2.65864	16.02724	3.94308
2687.566	20.74750	-3.72289	15.93527	4.01026
2691.562	19.90715	-2.26266	15.83714	4.10254
2695.566	20.94550	-2.46368	15.82394	4.20443
2699.568	20.38648	-1.11784	15.98179	4.24950
2703.566	20.64817	-2.17935	15.88883	4.22415
2707.583	20.84723	-2.34802	15.83328	4.27478
2711.568	20.94680	-2.37063	16.18608	4.30042
2715.563	20.35403	-2.61848	15.81208	4.34993
2719.564	20.77567	-2.23387	15.83659	4.39788
2723.573	20.00352	-2.28033	15.84651	4.47542
2727.567	20.23319	-2.19660	15.89588	4.39481
2731.575	20.73524	-2.28744	15.82694	4.32976
2735.569	19.68465	-1.60761	15.73860	4.32479
2739.566	20.78619	-2.41194	15.73789	4.24713
2743.562	20.13296	-2.37854	15.81199	3.88156
2747.562	20.80365	-2.47359	15.72782	3.87398
2751.562	19.46067	-2.23891	15.91659	3.83296
2755.564	20.80731	-2.47643	15.89531	3.75177
2759.566	19.41101	-2.47881	16.06023	3.87790
2763.566	20.68675	-2.09453	16.33557	3.66884
2767.559	20.32568	-2.56729	16.11226	3.82619
2771.565	20.27716	-1.78314	15.90518	4.22359
2775.572	20.55928	-2.62490	16.07906	3.73566
2779.564	19.52886	-2.11386	16.20803	3.58953
2783.561	20.36585	-2.12321	17.04348	3.62625
2787.561	NaN	NaN	15.87988	3.49372
2791.564	19.75471	-0.65286	15.57314	3.63096
2795.565	17.92250	2.01526	13.27835	4.45744
2799.567	17.21795	1.79166	12.79765	4.82423
2803.568	12.47614	2.97635	8.82780	6.11884
2807.568	12.22665	2.56109	8.65290	6.21399
2811.560	5.58088	3.41432	8.54399	5.46332
2815.564	5.31827	-1.64565	6.73764	5.79249
2819.561	11.78383	-1.75687	6.36567	6.04035
2823.564	10.59267	-1.52114	4.05149	7.04327
2827.566	12.51059	-1.15276	5.77526	6.67665
2831.562	8.41276	-3.27818	5.36233	6.29144
2835.560	12.68548	-6.00295	5.56647	6.57216
2839.561	12.23952	-5.92683	5.16356	6.62987
2843.587	12.16617	-5.90154	5.91835	6.60219
2847.576	8.82902	-4.15817	5.74556	5.89556
2851.562	9.32784	-3.80621	4.55588	6.48335
2855.563	9.20690	-0.94440	5.23512	6.66091
2859.575	11.81986	-3.54482	5.46064	6.57113
2863.570	11.70354	-8.98556	5.26974	6.44634
2867.565	12.89461	-9.04599	7.36977	6.13005
2871.561	13.20783	-6.59190	5.01516	6.40920
2875.564	13.11608	-6.56184	4.93546	6.37687
2879.562	10.12325	-5.71884	4.99933	6.07276
2883.562	11.13764	-5.47675	5.08983	5.85142
2887.570	11.61175	-5.30800	5.22611	6.23621
2891.587	11.85338	-5.61532	5.36107	6.04475
2895.560	13.53554	-5.33078	5.21284	5.94035
2899.564	8.56321	-6.55562	5.31079	5.92677
2903.560	8.76925	-3.91501	5.53820	5.97003
2907.558	8.80856	-4.08399	6.32976	6.02292
2911.563	8.72321	-4.22412	5.45063	6.31394
2915.566	8.58294	-4.90437	7.60595	4.68820
2919.559	12.11209	-6.46729	7.26459	5.14777
2923.563	12.18059	-6.55875	7.29472	4.92716
2927.560	11.57772	-4.82011	7.10885	4.86009
2931.565	9.43544	-3.84450	6.24806	5.39228
2935.559	9.83252	-4.02722	6.06055	5.03187
2939.563	11.33614	-3.84035	6.16694	5.25320
2943.561	5.42702	-3.64540	5.99703	5.53140
2947.560	5.63852	-2.99096	5.87506	6.17690
2951.556	8.47080	-1.66020	5.79364	6.00925
2955.562	7.20062	-1.23806	5.68433	5.26591
2959.559	7.60361	-2.33500	5.93807	4.89656
2963.558	7.72995	-3.84984	6.34974	5.26585
2967.557	2.35751	-1.11715	6.30651	4.89300
2971.568	7.53630	-2.36446	6.34768	5.31597
2975.558	6.90087	-1.51354	5.57628	5.10622
2979.560	6.40927	-3.80336	2.74554	5.19655
2983.566	4.80951	-4.19371	6.10622	5.60668
2987.597	6.15782	-1.03832	6.06919	5.55539
2991.572	4.30085	-0.93109	5.61927	5.55381
2995.562	3.56096	-0.82483	6.22429	5.09806
2999.558	7.56415	-4.03700	6.29443	5.39171
3003.554	4.10019	1.12527	6.19680	5.65500
3007.563	5.70197	0.46504	6.38945	5.10582
3011.566	4.12335	-0.63310	5.75598	5.49993
3015.562	0.59930	3.31564	6.36104	5.69698
3019.556	3.54766	3.64030	6.28371	5.59027
3023.563	4.18450	1.15545	6.61144	4.86961
3027.560	0.83699	3.54712	6.26875	5.58693
3031.562	-0.16841	6.58127	6.55902	5.53650
3035.558	0.49433	5.56848	6.81977	5.38117
3039.557	0.59836	4.85496	6.08873	5.63858
3043.558	1.89570	7.90615	6.99262	5.15639
3047.585	-2.30224	8.15548	6.54854	5.17287
3051.443	1.80298	4.11229	6.31772	5.60131
3055.437	-0.46460	8.79748	6.73444	5.28274
3059.435	3.72632	6.84980	7.30586	5.08884
3063.433	10.68619	-0.12585	7.44923	5.06041
3067.437	9.26343	3.51855	6.11196	5.18660
3071.433	2.40436	4.02954	2.19950	5.14516
3075.431	-6.49695	9.65340	2.26621	5.65039
3079.431	-0.90344	4.10709	-6.07660	1.64199
3083.437	2.17130	4.01811	-5.26406	4.95165
3087.434	-3.76962	4.05539	-4.82520	6.76464
3091.455	-4.91462	4.00583	-6.23660	5.96608
3095.434	-6.42768	2.93547	-5.68067	4.85244
3099.430	-7.89873	1.80462	-8.74699	4.90556
3103.436	-8.04351	1.37278	-8.62069	3.52140
3107.435	-9.61877	1.17683	-8.90596	3.46228
3111.434	-10.46829	1.68408	-11.48964	3.04881
3115.434	-11.01099	1.14355	-11.52100	3.65466
3119.433	-15.61713	7.12506	-12.64286	3.28719
3123.429	-15.61147	11.31928	-12.74848	3.33279
3127.435	-15.85492	10.91952	-12.72605	3.19844
3131.432	-18.71574	10.69633	-12.93993	3.57132
3135.432	-19.39076	10.50595	-12.53544	3.69785
3139.427	-19.74629	-12.09573	-12.05305	3.41537
3143.456	-19.82911	-12.08963	-12.38183	3.23632
3147.442	-20.90928	14.05252	-12.35365	3.48005
3151.431	-19.92474	-12.08255	-12.43182	3.32132
3155.428	-19.93948	-12.08146	-12.02971	3.62953
3159.435	-19.94957	-12.08071	-12.24543	3.15358
3163.430	-19.95696	-12.08016	-12.50545	3.23669
3167.432	-19.96262	-12.07974	-12.26548	2.90578
3171.432	-19.96709	-12.07940	-12.20655	2.95153
3175.432	-19.98666	-12.07795	-11.88844	2.99855
3179.429	-20.01180	-12.07608	-11.81760	2.93672
3183.461	-10.82969	1.06110	-12.13505	2.80024
3187.438	-20.01226	-12.07604	-12.34420	2.74896
3191.436	NaN	NaN	-12.44399	2.52870
3195.431	NaN	NaN	-12.29533	2.20375
3199.431	-11.53606	1.13594	-12.26853	2.29315
3203.430	NaN	NaN	-12.09365	2.50420
3207.434	NaN	NaN	-10.77876	2.24783
3211.431	-11.06103	1.20993	-11.59985	4.09398
3215.430	-11.31846	1.57065	-13.32221	2.37464
3219.428	-11.06432	0.96589	-12.02772	2.41923
3223.435	NaN	NaN	-12.07811	2.09311
3227.437	NaN	NaN	-12.06601	2.16111
3231.473	NaN	NaN	-13.59893	2.25707
3235.441	NaN	NaN	-12.04792	2.46817
3239.431	NaN	NaN	-11.78064	2.13901
3243.428	NaN	NaN	-11.94037	2.29999
3247.427	NaN	NaN	-11.77192	3.70021
3251.431	NaN	NaN	-11.89528	2.08071
3255.434	NaN	NaN	-11.95546	1.77279
3259.430	NaN	NaN	-12.87860	2.12193
3263.427	NaN	NaN	-12.14124	1.88172
3267.438	NaN	NaN	-12.15996	1.93933
3271.433	NaN	NaN	-12.14561	1.71884
3275.429	NaN	NaN	-11.93645	0.11927
3279.431	NaN	NaN	-12.07298	1.64232
3283.435	-10.19127	2.24834	-12.08727	1.66552
3287.431	NaN	NaN	-12.27908	1.76404
3291.430	NaN	NaN	-12.38547	1.47306
3295.434	NaN	NaN	-12.22507	1.56715
3299.431	NaN	NaN	-12.46796	1.58323
3303.483	NaN	NaN	-12.13780	1.64418
3307.447	NaN	NaN	-12.25756	1.80885
3311.435	NaN	NaN	-12.20150	2.38151
3315.429	NaN	NaN	-12.31597	2.23248
3319.452	NaN	NaN	-12.13180	2.36253
3323.434	NaN	NaN	-12.37655	2.05903
3327.426	NaN	NaN	-11.43703	2.52872
3331.431	NaN	NaN	-12.35201	2.48257
3335.431	NaN	NaN	-12.34995	2.74350
3339.429	NaN	NaN	-12.17267	3.74012
3343.425	NaN	NaN	-12.33809	2.99238
3347.430	NaN	NaN	-12.90249	2.18065
3351.433	NaN	NaN	-14.47582	2.43034
3355.430	NaN	NaN	-12.53755	3.44158
3359.434	NaN	NaN	-12.32047	3.79875
3363.428	NaN	NaN	-12.46924	3.30150
3367.427	NaN	NaN	-12.48537	3.01980
3371.426	NaN	NaN	-12.40522	3.43726
3375.431	NaN	NaN	-12.36511	3.19031
3379.428	NaN	NaN	-12.33240	3.10290
3383.429	NaN	NaN	-12.31796	3.03943
3387.426	NaN	NaN	-12.24666	3.10575
3391.432	NaN	NaN	-12.34219	2.89300
3395.428	NaN	NaN	-12.33915	3.12957
3399.427	NaN	NaN	-12.28728	2.97509
3403.425	NaN	NaN	-12.24628	2.87135
3407.422	NaN	NaN	-12.10058	2.91970
3411.424	NaN	NaN	-12.31862	2.81654
3415.430	NaN	NaN	-12.48282	2.71281
3419.428	NaN	NaN	-12.41286	2.65068
3423.429	NaN	NaN	-12.41852	2.22344
3427.433	NaN	NaN	-12.43904	2.34343
3431.427	NaN	NaN	-12.61370	2.35017
3435.431	NaN	NaN	-12.38831	2.38071
3439.425	NaN	NaN	-12.44934	2.11852
3443.429	NaN	NaN	-12.52182	2.31570
3447.426	NaN	NaN	-12.34240	2.20232
3451.456	NaN	NaN	-12.72527	2.23385
3455.437	NaN	NaN	-12.59864	2.30319
3459.430	NaN	NaN	-12.51378	2.41991
3463.427	NaN	NaN	-12.37865	2.56257
3467.425	NaN	NaN	-12.54528	2.96481
3471.429	NaN	NaN	-12.63754	2.94363
3475.434	NaN	NaN	-12.60457	2.51926
3479.428	NaN	NaN	-12.38876	2.41899
3483.425	NaN	NaN	-12.56436	1.94339
3487.432	NaN	NaN	-12.35824	2.51422
3491.425	NaN	NaN	-12.69353	2.35120
3495.429	NaN	NaN	-12.50910	2.36440
3499.426	NaN	NaN	-12.35329	2.19103
3503.426	NaN	NaN	-12.48972	2.13353
3507.424	NaN	NaN	-12.51657	2.63778
3511.428	NaN	NaN	-12.60171	2.79890
3515.427	NaN	NaN	-12.48114	2.54609
3519.434	NaN	NaN	-12.60675	1.60934
3523.449	NaN	NaN	-12.40567	1.75495
3527.434	NaN	NaN	-12.67813	1.68886
3531.425	NaN	NaN	-12.55150	1.61468
3535.426	NaN	NaN	-12.36880	1.90744
3539.423	NaN	NaN	-12.24773	2.01415
3543.427	NaN	NaN	-12.29739	2.71762
3547.424	NaN	NaN	-12.54138	2.85879
3551.426	NaN	NaN	-12.39336	1.74855
3555.428	NaN	NaN	-12.42520	1.37602
3559.450	NaN	NaN	-12.23282	1.92296
3563.425	NaN	NaN	-12.16738	2.53090
3567.422	NaN	NaN	-12.41748	2.29427
3571.427	NaN	NaN	-12.39350	2.89608
3575.427	NaN	NaN	-12.43372	3.11181
3579.425	-10.32361	0.41544	-12.70548	3.12753
3583.422	-9.89952	1.70078	-12.80825	2.14844
3587.427	-9.17483	1.38420	-12.58765	1.19430
3591.821	-10.51096	2.09647	-12.66868	1.22836
3595.434	-10.10307	1.13431	-12.61616	1.54268
3599.430	-10.04425	1.83816	-12.39857	1.47272
3603.425	-10.09419	1.50405	-12.65396	1.67904
3607.428	-9.93533	0.35508	-12.61670	1.50538
3611.422	-13.74594	1.26749	-12.52594	2.32593
3615.422	-13.19298	-1.73865	-13.04601	2.66850
3619.427	-13.56127	0.85811	-16.29148	2.68411
3623.425	-16.52752	1.98574	-20.48150	2.39555
3627.422	-16.99070	4.62697	-22.47422	4.67869
3631.420	-17.18838	6.86425	-7.42200	12.59854
3635.425	-19.99171	-12.07757	-20.20281	-12.06178
3639.426	-19.99271	-12.07750	-20.12529	-12.06760
3643.428	-19.99306	-12.07747	-20.08872	-12.07034
3647.449	-19.99324	-12.07746	-20.06733	-12.07193
3651.426	-19.99333	-12.07745	-20.05320	-12.07299
3655.429	-19.99342	-12.07745	-20.04313	-12.07374
3660.025	-19.99346	-12.07744	-20.03555	-12.07431
3663.528	-19.99350	-12.07744	-20.02961	-12.07475
3667.432	-19.99352	-12.07744	-19.99385	-12.07741
3671.426	-19.99361	-12.07743	NaN	NaN
3675.427	NaN	NaN	NaN	NaN
3679.424	NaN	NaN	NaN	NaN
3683.428	NaN	NaN	NaN	NaN
3687.428	NaN	NaN	NaN	NaN
3691.424	NaN	NaN	NaN	NaN
3695.427	NaN	NaN	NaN	NaN
3699.425	NaN	NaN	NaN	NaN
3703.431	NaN	NaN	NaN	NaN
3707.449	NaN	NaN	NaN	NaN
3711.436	NaN	NaN	NaN	NaN
3715.428	NaN	NaN	NaN	NaN
3719.458	NaN	NaN	NaN	NaN
3723.425	NaN	NaN	NaN	NaN
3727.884	NaN	NaN	NaN	NaN
3731.787	NaN	NaN	NaN	NaN
3735.427	NaN	NaN	NaN	NaN
3739.433	NaN	NaN	NaN	NaN
3743.423	NaN	NaN	NaN	NaN
3747.427	NaN	NaN	NaN	NaN
3751.428	NaN	NaN	NaN	NaN
3755.424	NaN	NaN	NaN	NaN
3759.421	NaN	NaN	NaN	NaN
3763.424	NaN	NaN	NaN	NaN
3767.433	NaN	NaN	NaN	NaN
3771.434	NaN	NaN	NaN	NaN
3775.441	NaN	NaN	NaN	NaN
3779.688	NaN	NaN	NaN	NaN
3783.635	NaN	NaN	NaN	NaN
3787.632	NaN	NaN	NaN	NaN
3791.598	NaN	NaN	NaN	NaN
3796.679	NaN	NaN	NaN	NaN
3800.704	NaN	NaN	NaN	NaN
3804.897	NaN	NaN	NaN	NaN
3809.001	NaN	NaN	NaN	NaN
3813.120	NaN	NaN	NaN	NaN
3817.259	NaN	NaN	NaN	NaN
3821.456	NaN	NaN	NaN	NaN
3823.548	NaN	NaN	-19.88584	10.35909
3827.432	-22.80450	10.16716	-19.92711	9.48731
3831.425	-22.58869	2.28933	-18.01116	3.22891
3835.421	-20.55390	1.24744	-19.93119	-12.08207
3839.422	-22.86786	4.03858	-23.26227	2.21669
3843.418	-20.85936	2.39129	-23.27541	0.28086
3847.425	-22.72533	1.34617	-22.89967	0.49399
3851.425	-22.78349	0.96714	-19.97235	-2.66138
3855.423	-22.71836	-1.01267	-20.11174	-2.48533
3859.425	-21.99237	-0.69366	-20.05522	-2.50178
3863.421	-21.56956	-0.78612	-20.01360	-1.90300
3867.445	-20.60765	0.10743	-20.06932	-2.25835
3871.433	-20.30100	-0.21572	-18.71394	-1.93482
3875.421	-19.39913	-0.23750	-19.64021	-1.88354
3879.418	-17.37528	-1.09722	-19.12298	-1.65844
3883.421	-17.50315	-0.83906	-18.81335	-1.41682
3887.420	-17.24861	-1.56087	-18.25825	-2.03651
3891.423	-17.09594	-1.68008	-18.95130	-2.64937
3895.422	-18.06151	-0.72477	-18.36800	-2.50235
3899.298	-16.90686	-1.61954	-18.43472	-2.70923
3903.295	-17.56665	-2.11331	-18.39478	-2.26102
3907.292	-19.85917	-0.97003	-16.77041	-2.00430
3911.298	-16.67883	-2.25669	-16.85221	-2.42638
3915.329	-16.12758	-5.49522	-16.96648	-1.51984
3919.291	-15.80585	-5.15189	-16.84646	-1.30897
3923.298	-15.97709	-5.86973	-17.81320	-1.54061
3927.295	-15.52283	-5.52278	-16.91068	-2.16650
3931.291	-15.83129	-6.03601	-16.55954	-1.62116
3935.317	-15.04066	-5.27659	-16.78892	-2.41767
3939.306	-15.67568	-2.63968	-16.75721	-2.68430
3943.293	-15.23773	-2.91535	-17.12845	-2.40933
3947.294	-15.05369	-2.87471	-16.97542	-2.25292
3951.291	-15.27977	-2.76305	-17.25852	-2.18477
3955.295	-15.53347	-2.45028	-17.03965	-2.05528
3959.293	-15.41153	-2.49228	-16.92054	-1.80704
3963.290	-15.45431	-2.67574	-17.11911	-1.81710
3967.290	-15.12800	-2.95615	-16.98269	-1.02609
3971.296	-15.52062	-2.56256	-17.06245	-0.66812
3975.294	-15.02411	-2.65875	-17.00539	-1.90471
3979.296	-14.97896	-4.96021	-17.00527	-2.06435
3983.303	-14.87654	-5.12383	-16.72321	-1.92557
3995.920	-15.58992	-2.44825	-19.01655	-1.75349
3999.304	-16.16035	-2.11211	-19.22184	-2.49017
4003.294	-16.88364	0.40795	-19.25980	-2.35645
4007.297	-17.76491	-0.31606	-18.97426	-0.87818
4011.293	-17.69363	4.92646	-20.03445	1.16464
4015.292	-20.95492	8.17299	-19.07558	-0.88755
4019.291	-21.14516	10.93771	-22.67899	4.28962
4023.298	-20.29438	-12.05488	22.05642	11.50399
4027.295	-21.58010	14.01186	-19.67204	-12.10118
4031.290	-20.17931	-12.06355	-19.74557	-12.09579
4035.290	-20.12467	-12.06764	-19.79430	-12.09220
4039.294	-20.09397	-12.06994	-19.86778	-12.08677
4043.291	-20.07418	-12.07142	-19.92843	-12.08228
4047.317	-20.06041	-12.07245	-19.97952	-12.07848
4051.303	-20.05406	-12.07293	-20.00115	-12.07687
4055.303	-20.04661	-12.07348	-19.96461	-12.07959
4059.293	-20.01193	-12.07607	-19.99377	-12.07742
4063.299	-19.99563	-12.07728	NaN	NaN
4067.296	-19.99554	-12.07729	NaN	NaN
4071.904	NaN	NaN	NaN	NaN
4075.656	NaN	NaN	NaN	NaN
4079.363	NaN	NaN	NaN	NaN
4083.304	NaN	NaN	NaN	NaN
4087.295	NaN	NaN	NaN	NaN
4091.381	NaN	NaN	NaN	NaN
4095.506	NaN	NaN	NaN	NaN
4099.303	NaN	NaN	NaN	NaN
4103.308	NaN	NaN	NaN	NaN
4107.335	NaN	NaN	NaN	NaN
4111.552	NaN	NaN	NaN	NaN
4115.798	NaN	NaN	NaN	NaN
4119.978	NaN	NaN	NaN	NaN
4123.943	NaN	NaN	NaN	NaN
4127.993	NaN	NaN	NaN	NaN
4132.178	NaN	NaN	NaN	NaN
4136.277	0.94775	14.77011	NaN	NaN
4140.429	-1.12563	14.46621	NaN	NaN
4143.309	-1.74127	6.98044	11.45982	14.44661
4147.303	15.80716	-3.41658	11.86538	12.84422
4151.290	13.50220	-3.52427	7.22876	3.13829
4155.288	13.14917	-3.86709	7.37609	5.31255
4159.288	-0.39519	-1.33711	-6.08828	6.14518
4163.291	-2.59297	-0.58567	-3.55988	-1.53292
4167.290	7.00282	-3.18286	0.38720	-3.44376
4171.288	10.03628	-3.85381	3.12180	-2.08034
4175.293	6.92403	-3.05090	1.65986	4.48057
4179.289	6.10789	4.05351	-3.01121	-1.81316
4183.289	6.01066	-0.44128	-6.53259	6.14219
4187.290	6.59341	-0.99095	-2.93889	-1.55816
4191.295	6.35510	-2.08253	-0.90560	-0.92501
4195.288	3.87102	-2.21138	-0.32109	-1.37703
4199.287	-3.07711	-1.89361	0.33302	-1.38736
4203.292	4.03947	-1.42669	-2.43820	-2.87923
4207.291	3.69022	-1.93700	-0.98938	-2.95823
4211.289	3.67225	-1.32716	-0.96152	-0.88369
4215.293	3.91163	-1.72512	-0.49726	-1.34342
4219.288	4.06431	-1.63483	1.25485	-1.09905
4223.290	3.73109	-4.15487	-1.43503	-3.10895
4227.284	2.86106	-2.04911	-0.62885	-0.26542
4231.297	3.49100	-1.57995	3.55098	-0.00871
4235.316	3.91361	-1.62356	5.22050	0.36802
4239.295	4.39908	-1.52594	2.87839	-0.73883
4243.292	2.84336	-1.66773	2.76143	-0.47056
4247.288	3.80288	-1.54068	2.53228	0.64659
4251.286	3.99941	-1.41522	3.95715	-0.13302
4255.286	2.92889	-3.14481	2.91381	-0.09105
4259.292	4.79615	-1.57646	2.82845	-0.09540
4263.288	3.07998	-1.20423	2.96864	-0.52025
4267.288	3.42393	-1.34098	3.14560	-0.98200
4271.289	4.51716	-1.47306	2.81469	-0.92654
4275.315	2.64436	-3.00013	2.25164	0.76559
4279.295	4.11942	-2.00282	2.75581	1.36702
4283.287	4.16983	-1.42460	2.72021	0.89820
4287.291	7.43640	-1.28233	2.42594	0.45358
4291.291	4.05999	-0.82529	2.64332	-0.16390
4295.291	-3.04140	-3.42815	2.24698	-0.07489
4299.291	-2.72835	-2.36266	2.37213	-1.06812
4303.286	2.38863	-0.50771	2.14178	1.05106
4307.286	2.43882	-1.50690	2.29946	0.79165
4311.296	2.29277	-2.05786	2.53615	-0.14033
4315.293	2.38670	-1.31226	2.43417	-0.82873
4319.340	4.30978	-2.21777	2.59552	0.76666
4323.290	3.00829	-3.14429	2.54591	0.41183
4327.290	7.63523	-1.36147	2.69279	-0.74848
4331.286	3.76678	-2.14963	2.52622	-1.29594
4335.287	3.25179	-2.51475	2.41863	0.47317
4339.283	4.24334	-1.31965	2.72568	-1.16288
4343.312	5.53815	-2.91010	2.71181	0.03398
4347.287	3.40180	-2.23700	10.10112	-3.77093
4351.290	4.20511	-1.14979	9.57155	-5.68042
4355.290	3.58484	-2.14330	5.44033	-6.88820
4359.297	3.97689	-3.70608	11.15938	-5.01130
4363.292	3.22421	-1.13964	2.61513	-1.01765
4367.288	6.06136	-2.70845	2.68960	0.08524
4371.286	4.32106	-3.08200	2.69611	-0.24516
4375.284	3.05397	-2.89010	2.73870	-0.96308
4379.287	4.68047	-2.72659	2.75282	0.10338
4383.284	5.03876	-2.77970	2.73816	0.12443
4387.283	2.45758	-3.98901	2.95767	-0.49008
4391.284	3.00066	-1.04430	2.84608	-0.79206
4395.293	3.83090	-2.16658	3.36755	-1.08928
4399.286	2.96349	-0.97321	2.80942	-0.07659
4403.281	5.39487	-2.95160	2.90440	0.37538
4407.287	5.69259	-1.92565	3.03794	0.08975
4411.309	4.01781	-2.00563	2.95970	0.21074
4415.293	4.61290	-0.30374	2.80100	0.30240
4419.285	5.04068	-2.26993	2.81962	0.79892
4423.290	2.74682	-1.96083	2.49258	1.88500
4427.286	2.30761	-1.27980	2.29129	1.54383
4431.285	2.36995	-0.23393	1.66599	1.67186
4435.289	2.36470	0.19909	1.72473	0.65403
4439.289	2.01766	0.30833	1.80962	0.62991
4443.292	1.76108	2.27349	1.42598	2.08879
4447.282	1.80925	0.13966	1.13769	2.55669
4451.287	1.57431	0.11230	1.50931	3.22214
4455.285	2.08857	0.27750	1.50065	2.82237
4459.285	1.34242	-0.21826	1.34390	2.80442
4463.282	0.97425	0.31402	1.23724	2.63117
4467.288	1.41762	1.51225	0.99310	1.62706
4471.286	1.27152	1.69018	1.15607	3.24933
4475.286	1.18066	0.24941	1.05483	3.61419
4479.315	1.24689	0.09212	1.06614	3.42082
4483.292	1.11100	1.25469	1.20403	3.27923
4487.288	0.99797	2.01033	0.90510	3.10111
4491.284	1.13216	0.02621	0.59813	2.35013
4495.285	1.15975	0.66239	0.99114	1.77074
4499.288	1.02069	0.68582	0.58488	2.27340
4503.284	0.85630	1.37183	0.99484	2.08900
4507.283	1.18363	0.90921	0.18502	3.12024
4511.282	1.31250	0.98226	0.90078	3.91780
4515.286	1.70388	1.16358	0.57493	4.01601
4519.286	1.11735	1.29124	1.00749	4.20241
4523.288	0.98050	0.90227	0.85952	4.30874
4527.287	1.56332	3.18658	0.90220	3.96355
4531.286	3.20046	2.51602	-3.01054	4.16608
4535.284	3.89891	0.70576	1.07329	3.85379
4539.282	1.11477	1.25402	0.68667	3.98242
4543.310	2.41390	0.75403	-0.21539	4.29778
4547.287	2.72853	-0.41810	-0.34288	3.75866
4551.284	1.91330	2.21773	0.82054	3.83987
4555.281	3.57686	0.73676	0.72967	3.85134
4559.286	2.25964	0.55754	0.66216	3.63349
4563.287	10.53965	-13.32047	0.82865	3.69000
4567.287	4.76618	-15.12846	-5.29373	1.07907
4571.277	-19.99372	-12.33278	-0.51865	4.31458
4575.285	-19.99372	-12.23335	0.81672	3.94205
4579.281	5.29738	-13.08547	0.26537	3.69692
4583.281	-19.99372	-12.24421	0.82913	3.88058
4587.284	3.06360	-0.17422	0.33156	3.60516
4591.283	3.28536	4.56332	2.16833	1.09781
4595.280	4.61539	2.21729	NaN	NaN
4599.285	4.54839	1.86439	NaN	NaN
4603.287	3.95587	-0.51629	1.01444	3.45726
4607.282	3.20862	1.73326	-0.69258	3.55046
4611.287	3.04625	1.50589	-4.37604	3.53160
4615.285	3.36337	1.69911	0.73836	3.80280
4619.286	-19.99372	-12.18632	-0.16226	5.62542
4623.282	NaN	NaN	-0.35107	3.75425
4627.283	NaN	NaN	0.28411	3.65074
4631.279	NaN	NaN	-4.11019	3.09695
4635.283	NaN	NaN	0.38973	4.41326
4639.282	NaN	NaN	-1.11616	2.74706
4643.280	NaN	NaN	-3.74575	2.22473
4647.284	NaN	NaN	0.13774	3.88911
4651.288	NaN	NaN	0.98827	3.11204
4655.283	NaN	NaN	-3.00086	3.46620
4659.281	NaN	NaN	0.64047	3.90575
4663.280	0.76853	1.41874	-1.15868	3.57556
4667.283	4.79028	1.37944	1.78406	3.44072
4671.282	1.95113	-0.13075	-0.24991	3.66713
4675.278	2.16967	4.16568	-1.72694	5.74871
4679.284	3.25345	0.10368	-0.69372	5.90605
4683.280	0.82863	1.20029	-2.96188	2.16297
4687.285	4.08006	0.84180	-0.88242	5.09178
4691.283	0.36665	0.84636	-1.21281	6.50218
4695.286	2.67977	0.00144	-0.82818	6.56367
4699.280	0.41678	0.66377	-0.99360	5.94296
4703.284	-0.11917	1.18220	-1.16662	5.52575
4707.280	-0.07651	1.09420	-1.50844	5.54428
4711.342	NaN	NaN	NaN	NaN
4719.291	-0.31985	1.34112	-0.10369	5.39876
4723.284	3.98059	2.09108	-1.19941	5.56984
4727.280	0.03060	0.74317	-2.73732	4.71974
4731.366	0.96199	1.13783	-1.04158	6.28909
4735.290	0.36960	1.02813	-3.22594	3.82746
4739.281	-0.04862	2.34038	-0.69960	5.81794
4743.313	0.64536	1.33914	-0.07314	4.09689
4747.276	-0.89443	1.50975	-3.35053	4.27623
4751.282	1.82031	0.74903	0.13034	4.57642
4755.159	4.16774	0.36141	1.04540	4.40156
4759.158	4.30983	-0.54475	-1.08515	4.24948
4763.153	1.64898	0.27273	-0.23788	3.51645
4767.152	4.35676	1.87978	0.04130	4.16237
4771.158	-0.05299	2.50886	-0.18904	4.05244
4775.159	-1.75659	1.10876	-4.61647	3.75776
4779.158	0.62876	0.75421	1.28829	4.57271
4783.152	1.80283	-1.67271	0.24031	4.38933
4787.158	0.40214	0.78353	-0.26192	4.58497
4791.153	-0.79491	2.67871	0.24170	4.19803
4795.157	1.53014	2.44630	0.86875	4.69651
4799.179	-0.19246	0.75596	-0.31722	4.60927
4803.162	1.49354	0.69128	0.53116	4.06240
4807.153	1.48334	1.03056	1.03878	4.09350
4811.156	1.46693	0.60848	0.40929	4.40961
4815.158	1.75054	-0.01128	-1.10011	3.56687
4819.160	1.84865	0.90642	-0.24234	4.66334
4823.158	0.72412	-7.55709	-4.85763	2.44198
4827.177	-0.07279	-5.14254	-4.39215	0.72632
4831.151	0.75702	-4.63069	-1.48952	0.48858
4835.160	0.06582	-7.02906	-4.15105	3.57238
4839.154	0.18777	-5.37813	-3.73873	3.64998
4843.153	-1.92947	-3.70731	-2.50722	1.15231
4847.151	-1.02704	-3.40972	-3.25466	-0.47513
4851.156	-1.34053	-3.20051	-3.46021	0.72860
4855.152	-4.07999	-0.80076	0.71987	3.13703
4859.155	-3.95609	-0.67896	0.83699	3.01661
4863.157	-4.37441	0.92357	-3.95105	3.34188
4867.152	-5.07530	1.21067	-0.43472	3.42042
4871.153	-4.78767	-2.94841	0.08629	3.54091
4875.151	-6.88732	-1.03183	-0.15561	3.66186
4879.155	-6.80700	-0.69298	0.03415	3.89496
4883.150	-7.69383	-0.15297	-3.94550	-1.07091
4887.151	-7.45916	-2.64903	-0.18238	1.81601
4891.156	-9.11056	0.69913	-0.02132	3.19143
4895.154	-10.39220	1.41671	-0.11071	3.42673
4899.149	-11.28393	1.49766	-0.10366	3.45359
4903.161	-13.51522	1.93763	-0.19206	3.08530
4907.154	-13.44958	2.16381	-0.07460	2.47346
4911.150	-13.27398	2.22629	-0.06634	3.22591
4915.155	-15.85646	2.27379	0.07671	3.54648
4919.152	-15.91711	2.03808	0.02521	3.39514
4923.152	-16.37243	1.45445	0.27758	2.76462
4927.156	-18.05104	4.56436	0.76560	2.83612
4931.151	-19.34849	2.98470	0.78744	3.12573
4935.153	-18.28130	7.93310	1.41432	3.30352
4939.155	-22.86793	3.25673	0.66498	3.36837
4943.157	-19.20674	4.22664	0.95090	3.38477
4947.156	-22.64151	6.21899	1.20854	3.37510
4951.150	-21.79208	3.64112	1.12993	3.20109
4955.206	-19.69972	-12.09915	1.27075	3.21682
