time (ms)	lx (deg)	ly (deg)	rx (deg)	ry (deg)
0.000	6.99548	-2.26260	5.78398	0.24858
3.997	3.84219	-2.24725	3.27586	0.23384
7.988	2.36148	-2.39858	2.00435	0.14980
12.004	2.39837	-2.46803	1.74531	0.14503
15.999	2.80206	-2.57760	1.71652	0.02305
20.046	3.37156	-2.55285	1.91395	0.02434
23.990	3.88525	-2.59220	2.40308	-0.04114
27.986	3.96726	-2.71001	2.14830	0.01013
31.986	3.94572	-2.79699	1.98752	-0.00370
35.988	3.81901	-2.85410	1.97401	-0.02839
39.994	2.98104	-2.96853	2.01191	-0.12201
43.988	2.98151	-2.99164	1.87748	0.03090
47.992	3.04130	-3.01704	1.85772	0.02640
51.991	3.57649	-2.98695	1.93566	-0.00412
55.990	3.97946	-3.01090	1.99397	-0.04480
59.989	4.06201	-3.02172	2.10069	0.05076
63.986	3.93710	-3.00535	2.29418	0.12678
68.004	3.52484	-3.02459	2.28341	0.10031
71.988	3.67106	-3.02598	2.44162	0.09114
75.998	3.70344	-3.02525	2.38707	0.03953
79.983	3.46840	-3.04982	2.47767	-0.06249
83.993	3.62768	-2.96878	2.40419	-0.02594
88.015	3.60165	-2.90185	2.44871	-0.16465
91.992	3.72183	-2.96611	2.44383	-0.10675
95.997	3.59498	-2.85275	2.45688	-0.00377
99.985	3.65151	-2.90706	2.57776	0.05647
103.984	3.59478	-2.94103	2.59195	0.04848
107.996	3.52618	-2.96789	2.55059	0.02430
112.005	3.47809	-3.02372	2.35628	0.08938
115.989	3.49690	-2.84107	2.40583	-0.16840
119.992	3.45848	-2.68957	2.26232	0.08152
123.990	3.63811	-2.92459	2.24844	0.16328
127.990	3.54890	-2.78168	2.27637	0.12008
131.989	3.42762	-2.64134	2.22124	0.08204
135.992	3.41721	-2.83060	2.24986	0.09264
139.999	3.30317	-2.94663	2.13103	0.09595
143.986	3.37712	-2.93177	2.12459	-0.11753
147.985	3.34833	-2.84631	2.11499	-0.37404
152.006	3.38170	-2.93794	2.11926	-0.45616
156.040	3.40561	-2.76038	2.12905	-0.39472
159.984	3.27804	-2.63984	2.14387	-0.26093
163.987	3.37846	-2.87258	2.20037	-0.13366
167.979	3.35256	-2.86147	2.21420	-0.24028
172.010	3.40103	-2.89995	2.20543	-0.32444
175.988	3.41773	-3.00175	2.23293	-0.38576
180.000	3.38914	-3.01490	2.11717	-0.43758
183.985	3.46644	-3.03828	2.21995	-0.51698
187.988	3.68500	-2.95221	2.47472	-0.46766
191.989	5.28010	-2.92876	3.60754	-0.35171
195.985	5.54385	-2.80958	4.40009	-0.14268
199.986	5.61522	-2.79856	4.14297	0.07448
203.986	4.63178	-2.75102	3.73977	-0.08773
207.987	4.06505	-2.54545	2.55604	-0.18216
211.989	4.20198	-2.63076	3.24452	-0.25449
215.983	4.39706	-2.61644	3.65329	-0.04573
220.019	4.82478	-2.67303	3.67341	0.21262
224.040	4.85798	-2.63680	3.59641	0.21943
228.000	5.27575	-2.63399	3.65907	0.33311
231.987	5.30387	-2.66700	3.72897	0.37236
235.988	5.36147	-2.70368	3.68851	0.45552
239.980	5.48273	-2.75795	3.71646	0.50121
243.986	5.06942	-2.72899	3.71461	0.36803
247.980	5.04031	-2.63341	3.70220	0.31294
251.999	5.01837	-2.57653	3.78039	0.36282
255.986	5.07986	-2.65617	3.70685	0.39710
259.990	4.87540	-2.34322	3.67576	0.34752
263.985	4.93718	-2.32560	3.65757	0.34217
267.986	4.92164	-2.51892	3.62838	0.28571
272.034	4.99445	-2.50302	3.63379	0.46235
275.992	5.08037	-2.54664	3.63562	0.38805
279.986	5.20009	-2.51235	3.71288	0.42653
283.983	5.06513	-2.53986	3.74562	0.36851
287.985	5.10647	-2.64704	3.65683	0.39265
291.995	5.02105	-2.80669	3.57416	0.38426
295.986	4.98009	-2.75663	3.54057	0.34531
299.978	4.94918	-2.68972	3.57251	0.38245
303.996	4.88259	-2.42728	3.60880	0.41410
307.985	4.96103	-2.07385	3.54309	0.48982
311.983	4.91134	-2.03078	3.56438	0.51647
315.987	4.93373	-2.39037	3.56480	0.47287
319.981	4.89818	-2.65156	3.56267	0.44039
323.997	4.90826	-2.65977	3.58927	0.38951
327.981	4.85497	-2.69838	3.73267	0.30641
331.992	4.85598	-2.45913	3.66829	0.19910
335.983	4.85901	-2.58021	3.72304	0.29999
339.984	4.88333	-2.46398	3.75954	0.30047
343.988	4.92553	-2.52029	3.78002	0.26245
347.991	4.92331	-2.43633	3.78402	0.10047
351.986	4.90107	-2.47217	3.76680	0.17139
355.987	4.85408	-2.14844	3.79937	-0.00392
359.866	4.92016	-2.44887	3.72887	-0.04644
363.855	4.89023	-2.46845	3.78061	-0.09479
367.857	4.98317	-2.52096	3.77234	-0.12546
371.864	5.00339	-2.45508	3.77281	-0.07275
375.864	5.07328	-2.38843	3.78810	-0.08817
379.855	4.98738	-2.29424	3.56863	-0.18045
383.859	4.85899	-2.21157	3.53256	-0.09923
387.853	4.78289	-2.05706	3.52212	-0.13143
391.877	4.83314	-2.04972	3.53839	-0.06158
395.864	4.85884	-2.20338	3.59555	0.04868
399.861	5.06136	-2.38462	3.57822	0.07768
403.854	5.22719	-2.46326	3.65870	0.16047
407.860	5.29720	-2.43905	3.62459	0.17295
411.861	5.06272	-2.54827	3.62254	0.12459
415.855	5.17122	-2.61978	3.59325	0.15929
419.863	4.94391	-2.64861	3.63989	0.15036
423.896	5.08234	-2.62617	3.61349	0.24482
427.868	5.01598	-2.51490	3.67551	0.21197
431.863	5.00627	-2.65642	3.55061	0.18551
435.854	5.16743	-2.70554	3.53041	0.18773
439.855	5.14574	-2.72521	3.52215	0.15747
443.857	5.12629	-2.67931	3.46555	0.17501
447.862	5.16856	-2.66086	3.47398	0.22844
451.857	5.21356	-2.69141	3.53268	0.19593
455.850	5.20295	-2.68901	3.48823	0.32479
459.874	5.20238	-2.60812	3.48504	0.34208
463.865	5.22483	-2.59553	3.53159	0.31243
467.858	5.18030	-2.61098	3.48521	0.30399
471.864	5.20211	-2.60874	3.46812	0.34417
475.858	5.17550	-2.58002	3.49463	0.33704
479.887	5.17395	-2.55615	3.52198	0.34189
483.865	5.17331	-2.53150	3.53812	0.29960
487.883	5.10544	-2.43671	3.56151	0.28886
491.926	5.02972	-2.27657	3.53033	0.30367
495.881	5.02351	-2.26858	3.42564	0.33151
499.857	4.96561	-2.34313	3.42389	0.43576
503.854	4.93748	-2.43538	3.38298	0.41127
507.856	4.93580	-2.42891	3.37435	0.42085
511.852	4.96847	-2.25214	3.36404	0.45811
515.870	4.96741	-2.28978	3.38006	0.43943
519.860	4.99270	-2.31701	3.42267	0.38308
523.858	5.00007	-2.39478	3.45289	0.37411
527.855	4.90417	-2.51199	3.40066	0.34549
531.870	4.95361	-2.63247	3.49540	0.44523
535.856	4.97765	-2.58032	3.57515	0.56626
539.871	5.02361	-2.58876	3.43348	0.41869
543.850	5.01787	-2.57742	3.45487	0.44597
547.868	4.95324	-2.56784	3.48115	0.51279
551.854	4.96795	-2.50122	3.53805	0.56484
555.857	4.94211	-2.43460	3.59874	0.68914
560.103	4.93585	-2.51778	3.51898	0.51892
563.858	4.96741	-2.53344	3.55295	0.53842
567.856	4.90417	-2.52768	3.60657	0.56907
571.864	4.92957	-2.54048	3.61340	0.60752
575.859	4.99551	-2.48409	3.39238	0.63683
579.853	4.94706	-2.37527	3.45027	0.59243
583.869	4.94543	-2.41813	3.45944	0.53587
587.856	4.99039	-2.40064	3.46189	0.52144
591.853	4.96568	-2.41981	3.52237	0.50603
595.856	4.98258	-2.41476	3.52601	0.47195
599.864	4.90383	-2.51325	3.54314	0.43380
603.862	4.94238	-2.64390	3.57790	0.49739
607.857	4.89878	-2.52669	3.62086	0.50359
611.855	4.89782	-2.55669	3.60719	0.51434
615.858	4.87833	-2.33053	3.62781	0.51787
619.859	4.85923	-2.42299	3.69691	0.58738
623.856	4.85768	-2.36343	3.66723	0.59938
627.866	4.85684	-2.28062	3.70186	0.62735
631.856	4.83681	-2.21844	3.63767	0.63186
635.854	4.88298	-2.37360	3.62959	0.64027
639.852	4.87441	-2.36718	3.60010	0.63010
643.859	4.89934	-2.21138	3.52821	0.60133
647.852	4.93078	-2.27505	3.34947	0.59130
651.857	4.91442	-2.23242	3.48998	0.60807
655.857	4.87710	-2.32290	3.43573	0.61255
659.852	4.81066	-2.25712	3.48531	0.63446
663.868	4.80931	-2.31319	3.55389	0.56002
667.852	4.74151	-2.37503	3.62133	0.52030
671.856	4.74895	-2.45734	3.69652	0.48056
675.870	4.71077	-2.48643	3.67924	0.36078
679.856	4.73318	-2.47626	3.72501	0.36964
683.861	4.72517	-2.45866	3.72257	0.43019
687.856	4.73367	-2.57844	3.78800	0.50600
691.854	4.76216	-2.48283	3.92704	0.51519
695.912	4.83358	-2.45679	3.89755	0.48030
699.849	4.96241	-2.65084	3.88302	0.44318
703.856	4.97320	-2.52920	3.82390	0.49906
707.851	5.03950	-2.44140	3.63077	0.43844
711.854	4.96509	-2.51608	3.56742	0.51681
715.846	5.06252	-2.73749	3.52457	0.54159
719.856	5.04920	-2.79504	3.51631	0.60751
723.853	5.02519	-2.80448	3.48106	0.66914
727.860	5.06813	-2.84903	3.48170	0.73409
731.865	5.09650	-2.76345	3.49767	0.82412
735.870	5.09202	-2.77651	3.39938	0.66649
739.855	5.03757	-2.76587	3.39804	0.60181
743.853	5.03117	-2.61492	3.37717	0.66336
747.848	5.01383	-2.22922	3.38798	0.59978
751.853	4.97615	-2.40714	3.42156	0.71571
755.861	5.01255	-2.32316	3.45302	0.75601
759.853	4.98820	-2.24490	3.52625	0.65430
763.856	4.99219	-2.15377	3.57624	0.65131
767.849	5.01647	-2.09780	3.62667	0.68069
771.853	5.04262	-2.28791	3.58648	0.54981
775.848	5.02231	-2.12280	3.53886	0.50262
779.850	5.00595	-2.04560	3.60922	0.58218
783.861	5.12565	-2.02624	4.25408	0.74303
787.856	7.52898	-1.24889	5.52972	1.19095
791.850	8.98455	-0.04975	7.88845	3.77218
795.850	11.05252	1.65363	8.83498	4.15852
799.852	11.23186	3.30677	9.33695	5.78373
803.853	12.07127	3.72368	10.06244	5.24076
807.850	13.14310	3.58247	11.13088	4.86140
811.857	13.56059	3.73674	11.42589	4.16854
815.850	13.63065	3.38885	11.56981	4.64234
819.851	13.18588	3.43655	11.65968	4.41801
823.844	12.52596	3.36757	10.86804	4.83843
827.853	12.08162	3.56018	11.03946	4.56226
831.871	12.68316	3.64365	11.37982	4.83603
835.856	12.99635	3.75088	11.47882	5.07975
839.849	13.00719	3.83198	11.94676	4.95082
843.847	12.93410	3.80538	11.73638	4.85740
847.857	12.98202	3.81687	11.47608	4.78925
851.845	12.99929	3.92583	11.63692	4.85169
855.892	13.03164	4.06279	11.67629	4.91636
859.865	12.90407	4.04166	11.56617	5.04905
863.844	12.92564	4.05799	11.43503	5.04380
867.856	12.99566	4.01620	11.50832	5.01150
871.873	13.06221	4.04606	11.60878	5.10100
875.857	13.11924	4.08810	11.59106	5.19598
879.848	13.11658	4.03368	11.55895	5.04715
883.848	13.10200	4.12349	11.58949	4.95285
887.855	13.14334	4.07446	11.56386	5.05726
891.853	13.15687	4.08286	11.59199	5.10244
895.850	13.11643	4.13274	11.56471	4.83322
899.857	13.13691	4.18155	11.53034	4.94163
903.849	13.19720	4.11475	11.55076	4.92506
907.845	13.21547	4.13586	11.56145	5.10138
911.853	13.16685	4.14889	11.67339	4.93242
915.848	13.12597	4.22699	11.48416	4.76053
919.878	13.16588	4.21133	11.61768	4.78349
923.851	13.14614	4.33314	11.63006	4.77073
927.850	13.15376	4.47527	11.59704	4.90821
931.848	13.14164	4.34174	11.61192	4.96992
935.856	13.23132	4.29689	11.56872	5.01470
939.847	13.27205	4.33279	11.63123	4.98371
943.868	13.25197	4.32803	11.68541	4.98815
947.844	13.29217	4.34078	11.58770	5.06934
951.855	13.31629	4.37016	11.63004	5.01452
955.846	13.33438	4.40539	11.55481	5.08742
959.849	13.36610	4.43391	11.63887	5.06737
963.841	13.33913	4.49216	11.60220	5.18344
967.846	13.37951	4.42603	11.61275	5.17641
971.856	13.38910	4.35380	11.63085	5.17866
975.859	13.44315	4.38743	11.61449	5.14043
979.848	13.42460	4.46004	11.63137	5.13495
983.846	13.43475	4.43131	11.63254	5.11576
987.844	13.47294	4.35214	11.65337	5.11717
991.858	13.46998	4.34403	11.70128	5.13212
995.851	13.49835	4.38861	11.67508	5.22823
999.850	13.52834	4.31986	11.70766	5.24463
1003.845	13.54889	4.35629	11.68931	5.23327
1007.852	13.60224	4.36989	11.71380	5.22205
1011.851	13.62038	4.29195	11.71078	5.24477
1015.856	13.66545	4.26496	11.66375	5.23783
1019.845	13.69261	4.27947	11.64442	5.27394
1023.851	13.72050	4.20197	11.62951	5.21086
1027.849	13.74952	4.25333	11.47915	5.17725
1031.845	13.71683	4.27985	11.50127	4.98821
1035.848	13.64727	4.29379	11.49333	4.90508
1039.847	13.67712	4.30453	11.48945	4.90766
1043.852	13.63138	4.26807	11.48361	4.93228
1047.848	13.61853	4.28120	11.44976	4.95914
1051.848	13.56983	4.26000	11.45639	4.91682
1055.847	13.52055	4.34873	11.44881	4.94221
1059.865	13.48793	4.38375	11.46964	5.00648
1063.852	13.43052	4.47931	11.47202	5.02826
1067.844	13.39840	4.59654	11.45243	5.06232
1071.872	13.40016	4.60865	11.55249	4.97863
1075.882	13.44646	4.66311	11.61978	4.98314
1079.844	13.48202	4.50064	11.59349	5.08513
1083.846	13.46266	4.66431	11.55457	5.14116
1087.844	13.44698	4.72614	11.61528	5.01467
1091.845	13.42031	4.82930	11.60735	5.00614
1095.857	13.41596	4.86397	11.59870	4.95092
1099.855	13.34622	4.73277	11.60906	4.88758
1103.856	13.34756	4.72163	11.61118	4.93265
1107.843	13.33567	4.65610	11.65944	4.90083
1111.845	13.36939	4.69556	11.74784	4.88372
1115.847	13.34582	4.76092	11.75134	4.93418
1119.842	13.32867	4.65251	11.73840	4.93422
1123.843	13.30306	4.73625	11.77013	4.87258
1127.856	13.26805	4.70004	11.80968	4.79088
1131.844	13.25098	4.73623	11.80357	4.76852
1135.853	13.27520	4.72892	11.82704	4.70130
1139.846	13.32743	4.60237	11.87346	4.58227
1143.845	13.35008	4.55695	11.91004	4.44871
1147.851	13.35017	4.61285	11.89801	4.37705
1151.838	13.37871	4.67424	11.86876	4.55819
1155.841	13.43193	4.61938	11.84018	4.51898
1159.844	13.40981	4.62353	11.79244	4.51246
1163.851	13.35424	4.55406	11.78652	4.49390
1167.851	13.37834	4.48321	11.76992	4.52344
1171.878	13.43097	4.49898	11.76124	4.61851
1175.846	13.42864	4.45369	11.75222	4.62782
1179.848	13.43221	4.43522	11.72289	4.65730
1183.844	13.47446	4.44934	11.70932	4.67993
1187.841	13.44658	4.55662	11.70652	4.63814
1191.845	13.49802	4.59410	11.69043	4.68349
1195.838	13.49408	4.53735	11.69421	4.61100
1199.840	13.47172	4.51311	11.72096	4.57804
1203.846	13.46578	4.57705	11.76009	4.56956
1207.843	13.46479	4.55200	11.76859	4.64995
1211.716	13.44014	4.59898	11.77142	4.69737
1215.718	13.51389	4.60297	11.77517	4.80539
1219.719	13.59422	4.64536	11.81463	4.79632
1223.718	13.57771	4.73362	11.88454	4.73753
1227.721	13.58460	4.82693	11.88480	4.70313
1231.729	13.69188	4.80238	11.84905	4.83038
1235.724	13.69261	4.88610	11.87092	4.90017
1239.742	13.64945	5.01083	11.83764	4.98490
1243.725	13.70401	5.02268	11.81798	5.07885
1247.719	13.74397	5.11353	11.82894	5.09843
1251.713	13.80584	5.16557	11.82663	5.14311
1255.722	13.81916	5.21637	11.91072	5.14453
1259.717	13.79253	5.28684	11.95496	5.14806
1263.721	13.76422	5.34351	11.98144	5.12072
1267.716	13.77162	5.42224	11.93194	5.13971
1271.737	13.76329	5.45308	11.95175	5.11045
1275.735	13.69495	5.46511	11.92835	5.09323
1279.712	13.62502	5.45380	11.96455	5.03505
1283.729	13.59361	5.41423	11.92061	5.00240
1287.717	13.56059	5.39566	11.97937	4.96026
1291.721	13.58163	5.34304	12.02705	4.89681
1295.720	13.53472	5.38655	12.01483	4.94588
1299.722	13.56852	5.25853	12.02981	4.91292
1303.714	13.59063	5.23133	11.93904	5.00990
1307.795	13.65694	5.17951	11.88734	5.02938
1311.728	13.57633	5.20137	11.92833	5.06190
1315.717	13.57825	5.14550	11.92077	5.06539
1319.716	13.63794	5.15408	11.98690	5.12778
1323.710	13.66023	5.08823	12.01787	5.12492
1327.721	13.67773	5.06907	12.11913	5.13592
1331.714	13.75980	5.04982	12.06366	5.18166
1335.718	13.74273	5.09222	12.02247	5.24618
1339.711	13.78394	5.09799	12.01789	5.27854
1343.721	13.79201	5.10092	12.03088	5.30675
1347.715	13.82597	5.14995	12.04303	5.27335
1351.719	13.85087	5.10247	12.02064	5.17969
1355.745	13.89975	5.08596	12.05715	4.98770
1359.730	13.92889	5.03689	12.08034	4.91487
1363.710	13.97220	5.01305	12.05608	4.97407
1367.714	14.02008	5.06036	12.04956	4.96766
1371.722	14.00879	5.02589	12.00117	5.01295
1375.724	13.98956	5.09325	12.00296	5.03263
1379.731	14.00840	4.97400	12.00462	5.08428
1383.718	14.00639	4.94499	11.99512	5.08742
1387.714	14.01788	4.95829	12.01364	4.95092
1391.715	13.98636	4.94360	12.04144	4.83507
1395.719	13.92388	4.98786	12.12514	4.89599
1399.720	13.94460	5.07151	12.14364	5.01917
1403.719	13.91201	5.15267	12.15227	5.05452
1407.714	13.87089	5.21005	12.15851	5.11653
1411.728	13.75310	5.26788	12.16335	5.13560
1415.719	13.71776	5.34758	12.19697	5.09088
1419.715	13.68059	5.34115	12.20250	5.05868
1423.717	13.59009	5.42688	12.23933	4.93972
1427.722	13.51316	5.52853	12.23945	4.83222
1431.714	13.54577	5.55114	12.13946	4.91241
1435.723	13.49237	5.53820	12.01364	4.89616
1439.715	13.48521	5.42071	12.05421	4.91388
1443.717	13.49293	5.41627	12.02736	4.83945
1447.711	13.46606	5.34854	12.09913	4.83500
1451.714	13.47787	5.16811	12.01293	4.80638
1455.729	13.53967	5.07223	11.91904	4.93131
1459.741	13.60336	5.23987	11.94208	4.87558
1463.720	13.66098	5.12033	11.95311	4.85038
1467.716	13.71662	5.15800	11.94453	4.83793
1471.725	13.78387	5.14206	11.86234	4.85151
1475.721	13.85814	5.13816	11.88867	4.82753
1479.727	13.86013	5.19631	11.94254	4.72699
1483.714	13.76376	5.27846	11.95783	4.69579
1487.717	13.76151	5.27631	11.91876	4.62198
1491.711	13.75830	5.34611	11.91657	4.62728
1495.719	13.60732	5.40889	11.86367	4.72739
1499.712	13.48709	5.49516	11.90726	4.67695
1503.711	13.55039	5.52695	11.91685	4.59976
1507.714	13.36290	5.61714	11.95864	4.59702
1515.588	13.55278	5.49868	11.96192	4.61991
1518.317	13.59919	5.41236	12.00583	4.66864
1520.953	13.51304	5.30169	12.05445	4.73727
1523.729	13.53015	5.24682	12.07113	4.77465
1527.723	13.52083	5.07483	12.11923	4.79775
1531.711	13.60615	5.02816	12.11890	4.91667
1535.712	13.58458	4.96176	12.07827	5.02758
1539.716	13.44738	4.84174	12.07628	4.96130
1543.710	12.96418	4.72995	11.30751	4.85339
1547.718	10.26283	4.69529	8.39229	4.98593
1551.711	9.20533	4.13270	8.54372	5.04543
1555.709	8.48039	4.24280	6.24656	5.22993
1559.716	7.39144	3.84500	6.33934	5.25626
1563.718	6.59263	3.58865	3.96098	5.45415
1567.711	4.92053	3.81504	3.89323	5.53516
1571.730	3.37227	3.39876	1.76871	5.68068
1575.711	1.45239	3.78327	0.76856	6.19584
1579.714	0.33191	3.86420	-0.60248	5.92022
1583.721	-2.23496	4.14126	-3.33888	6.92538
1587.713	-4.10673	4.43449	-4.45219	6.85624
1591.712	-5.35647	4.44352	-5.80818	6.39255
1595.718	-7.00954	5.42906	-7.97067	7.52605
1599.713	-7.96714	5.71275	-8.72782	7.50203
1603.714	-9.51150	5.92268	-9.18003	7.12218
1607.713	-9.12672	5.85524	-9.05086	7.09105
1611.713	-8.54081	5.81952	-8.76484	7.05562
1615.709	-7.92040	5.77609	-8.40096	7.26253
1619.715	-7.76255	5.89807	-8.82264	7.81293
1623.720	-8.04416	5.90540	-9.01145	7.89011
1627.721	-8.25353	5.91929	-9.05746	7.82152
1631.708	-8.47282	6.01499	-9.25415	7.84067
1635.713	-8.50020	6.05738	-9.33408	7.93886
1639.707	-9.26590	6.23390	-9.47823	7.94048
1643.724	-9.02796	6.14526	-9.56798	7.96675
1647.715	-9.00179	6.19492	-9.61433	8.00047
1651.718	-9.11498	6.28434	-9.32777	7.93568
1655.710	-9.08285	6.28650	-9.31740	7.99316
1659.713	-9.18373	6.29525	-9.32216	7.97338
1663.709	-9.10003	6.28036	-9.41929	7.81304
1667.710	-9.10320	6.27340	-9.48120	7.69814
1671.722	-9.15393	6.27326	-9.49989	7.84519
1675.709	-9.24977	6.30250	-9.43173	8.02493
1679.715	-9.18453	6.26761	-9.43856	8.08531
1683.714	-9.15529	6.23249	-9.23940	7.84585
1687.714	-9.16571	6.29191	-9.21781	7.75021
1691.719	-9.04902	6.23481	-8.80175	7.70466
1695.708	-8.99503	6.19717	-8.96024	7.85932
1699.712	-9.05645	6.20180	-9.07264	7.84000
1703.705	-9.25473	6.19420	-9.92432	7.93228
1707.718	-11.42108	6.11862	-10.40776	7.70421
1711.707	-12.88206	6.08874	-12.57548	7.76353
1715.708	-13.78668	6.07068	-12.89742	6.98172
1719.706	-14.86277	6.11424	-13.23836	7.10474
1723.715	-15.54239	6.16102	-14.42232	7.33268
1727.721	-15.55268	6.12153	-14.70960	7.06250
1731.719	-15.35041	6.22007	-14.53130	6.94254
1735.724	-15.02362	6.28745	-14.49506	7.04364
1739.716	-14.93107	6.31757	-14.46736	6.97710
1743.713	-14.77955	6.28500	-14.50232	6.79734
1747.709	-14.79312	6.26458	-14.40935	6.68903
1751.710	-15.13228	6.34102	-14.69501	6.58754
1755.710	-15.07331	6.30515	-14.12364	6.52179
1759.709	-15.47713	6.41471	-14.46633	6.66180
1763.711	-15.57136	6.48363	-14.61497	6.67159
1767.713	-15.30727	6.52156	-14.43885	6.62294
1771.731	-15.18906	6.45928	-14.32954	6.85626
1775.711	-15.38233	6.46594	-14.33516	6.84598
1779.707	-15.28984	6.49507	-14.49520	6.82686
1783.711	-15.39056	6.47527	-14.50951	6.81276
1787.708	-15.43512	6.47955	-14.34892	6.97657
1791.711	-15.56392	6.50782	-14.35677	6.96172
1795.715	-15.54566	6.51601	-14.50451	7.01645
1799.710	-15.56185	6.51720	-14.49827	7.08337
1803.711	-15.54798	6.48438	-14.49227	7.08076
1807.710	-15.55685	6.46286	-14.49334	7.07921
1811.711	-15.57277	6.45671	-14.58596	7.12307
1815.712	-15.49052	6.43534	-14.31100	6.98189
1819.706	-15.40772	6.41911	-14.44371	6.93596
1823.728	-15.47150	6.42446	-14.00211	6.66115
1827.709	-15.57613	6.42959	-13.84085	6.61756
1831.711	-15.50437	6.43690	-14.21878	6.74139
1835.703	-15.44635	6.37904	-13.94448	6.73044
1839.716	-15.39095	6.35966	-14.13405	6.79493
1843.703	-15.44013	6.39096	-14.40039	6.70186
1847.706	-15.43358	6.43087	-13.91474	6.58545
1851.740	-15.46037	6.45129	-13.92727	6.61442
1855.723	-15.43452	6.46294	-13.33645	6.59837
1859.711	-15.37764	6.50852	-13.49213	6.69831
1863.699	-15.42445	6.52819	-13.25547	6.53161
1867.723	-15.29561	6.48470	-13.72610	6.66653
1871.704	-15.32989	6.51913	-13.72130	6.72850
1875.717	-15.17117	6.48282	-13.92807	6.81518
1879.709	-15.18971	6.54364	-14.01118	6.86161
1883.705	-15.03874	6.55463	-13.85222	6.77411
1887.712	-15.05718	6.56927	-13.83044	6.75618
1891.713	-15.03133	6.53093	-13.97447	6.72907
1895.713	-15.14225	6.53477	-13.94584	6.55201
1899.704	-15.23380	6.55932	-13.88628	6.90100
1903.710	-15.20332	6.56648	-13.90420	6.86664
1907.706	-15.37044	6.58695	-13.96302	6.90864
1911.709	-15.39370	6.60294	-13.95701	6.77997
1915.704	-15.41338	6.54898	-14.00985	6.77567
1919.715	-15.40987	6.58513	-14.01898	6.66493
1923.704	-15.25894	6.61792	-13.97311	6.57071
1927.708	-15.19258	6.61415	-13.97456	6.57553
1931.716	-15.25968	6.59897	-14.26138	6.44254
1935.713	-15.46740	6.60142	-13.93461	6.58623
1939.708	-15.56906	6.57448	-14.00819	6.74880
1943.717	-15.34861	6.56950	-13.90377	6.70344
1947.707	-14.60135	6.57246	-12.82111	6.72783
1951.707	-11.47283	6.52740	-10.75814	6.75397
1955.709	-8.54726	6.05256	-7.72944	7.00426
1959.705	-5.12957	4.53599	-3.69914	6.99287
1963.716	-2.46238	3.90375	-2.21162	6.72105
1967.709	-0.31111	3.67474	0.47254	5.20924
1971.708	2.14104	3.24302	2.31086	4.99745
1975.711	4.93423	3.11422	4.30174	5.10540
1979.715	5.42355	3.43876	5.79207	5.28931
1983.706	7.02929	4.34574	7.46407	5.07549
1987.756	11.97491	4.79474	7.96161	4.80816
1991.732	12.95694	5.41754	8.13906	4.72191
1995.708	13.37526	5.32503	10.88096	4.63287
1999.716	13.90773	5.73674	11.38950	4.86712
2003.708	13.35299	5.46292	11.53839	4.70023
2007.702	13.41904	5.29641	11.60878	4.68556
2011.704	13.13807	5.09407	11.82808	4.63126
2015.708	13.16543	5.07192	11.81249	4.62877
2019.708	13.40986	5.21325	11.81201	4.66461
2023.701	13.34714	5.03790	12.01122	4.57739
2027.706	13.25832	5.22933	12.07697	4.58422
2031.708	13.38879	5.35567	12.05532	4.74469
2035.703	13.28195	5.36838	12.08933	4.75314
2039.700	13.26723	5.22098	12.07436	4.81887
2043.760	13.40643	5.04995	12.14535	4.74199
2047.701	13.49922	4.93633	12.20371	4.81157
2051.720	13.62908	4.85576	12.23995	4.83001
2055.720	13.71160	4.72176	12.18635	4.86099
2059.710	13.77314	4.82965	12.17030	4.87647
2063.588	13.78007	4.81046	12.14665	4.90129
2067.581	13.88490	4.71537	12.14584	4.88206
2071.582	13.95018	4.66599	12.12257	4.86603
2075.700	13.98732	4.74852	12.08124	4.89459
2079.573	13.93805	4.95576	12.04623	4.88997
2083.572	13.96418	4.93331	12.06318	4.87649
2087.595	13.92856	5.06549	12.04659	4.89428
2091.577	13.90410	5.24353	12.02613	4.86237
2095.578	13.84935	5.27651	12.02368	4.81601
2099.579	13.84050	5.47053	12.06076	4.75845
2103.589	13.79314	5.41120	12.10922	4.71106
2107.583	13.82653	5.38876	12.15891	4.66661
2111.580	13.79072	5.36628	12.19626	4.63488
2115.579	13.71303	5.41763	12.24351	4.54131
2119.613	13.70842	5.40714	12.26507	4.52274
2123.590	13.69818	5.38751	12.32722	4.51813
2127.587	13.68951	5.37046	12.34124	4.49123
2131.576	13.71983	5.37032	12.36755	4.49283
2135.578	13.68174	5.39571	12.39234	4.46855
2139.572	13.68141	5.34082	12.39066	4.50546
2143.582	13.72613	5.32423	12.36357	4.57711
2147.581	13.86109	5.20852	12.36575	4.56380
2151.593	13.84263	5.06080	12.37965	4.41627
2155.584	13.90901	4.92682	12.33397	4.39042
2159.582	13.85281	4.98054	12.33314	4.28423
2163.576	13.84827	4.99201	12.31319	4.35536
2167.581	13.87695	4.91538	12.24967	4.40964
2171.577	13.89529	4.89947	12.30914	4.36747
2175.588	13.86048	4.88196	12.36357	4.26339
2179.574	13.92510	4.94917	12.36094	4.29285
2183.575	13.96033	5.10370	12.38876	4.27476
2187.583	13.91657	4.94617	12.42086	4.34785
2191.583	13.89812	5.09571	12.39274	4.06594
2195.586	13.84436	5.20018	12.40624	4.10042
2199.601	13.80357	5.13773	12.43057	4.11952
2203.576	13.79672	5.20478	12.37730	4.22852
2207.583	13.73751	5.23400	12.36549	4.14977
2211.574	13.70523	5.26105	12.39814	4.16427
2215.581	13.63447	5.32988	12.36734	4.08553
2219.568	13.66519	5.35076	12.37863	4.05227
2223.581	13.66716	5.29065	12.38661	4.04621
2227.585	13.61330	5.29152	12.35090	3.99193
2231.580	13.59792	5.22540	12.24803	4.09919
2235.578	13.55257	5.24659	12.16503	4.18046
2239.571	13.57096	5.18182	12.14404	4.18702
2243.580	13.58261	5.23283	12.17184	4.23150
2247.574	13.65179	5.20705	12.10732	4.22629
2251.573	13.68209	5.23863	12.09909	4.21564
2255.575	13.65020	5.23421	12.10105	4.17928
2259.578	13.67400	5.18970	12.09178	4.17276
2263.571	13.70994	5.18525	12.08221	4.09725
2267.575	13.73622	5.19303	12.12675	3.96839
2271.608	13.74896	5.11417	12.15647	4.04944
2275.582	13.79054	5.01952	12.17710	4.02479
2279.573	13.86170	4.89970	12.28097	3.97399
2283.578	13.91072	4.73696	12.34306	3.94044
2287.571	13.96556	4.74963	12.35670	3.88090
2291.583	14.03729	4.61866	12.39632	3.84412
2295.573	14.04467	4.65946	12.44640	3.85029
2299.570	14.10200	4.65155	12.48241	3.84686
2303.592	14.15328	4.71781	12.51418	3.85916
2307.579	14.19695	4.76322	12.56008	3.88957
2311.581	14.16704	4.91465	12.56571	3.96852
2315.578	14.14590	4.87317	12.58441	4.05444
2319.576	14.11577	4.95570	12.62348	4.04099
2323.575	14.14583	4.93594	12.57571	4.15498
2327.580	14.15118	4.92537	12.53902	4.17504
2331.570	14.17262	4.92886	12.45151	4.20601
2335.575	14.03659	5.04086	12.40936	4.31197
2339.577	13.94757	5.10063	12.42546	4.37873
2343.574	13.96365	5.09356	12.35820	4.49024
2347.573	13.98592	5.10055	12.35377	4.60735
2351.575	13.94345	5.03501	12.35071	4.68132
2355.599	13.96250	4.91797	12.30860	4.77854
2359.579	14.06847	4.89837	12.27865	4.84792
2363.582	14.06390	4.78399	12.22893	4.81596
2367.578	14.13017	4.74729	12.22172	4.83059
2371.577	14.15619	4.47100	12.18761	4.75646
2375.573	14.20446	4.54740	12.18858	4.72359
2379.576	14.18216	4.60238	12.20093	4.65270
2383.590	14.10326	4.51977	12.21644	4.47885
2387.573	14.07716	4.66268	12.18004	4.73831
2391.577	13.99814	4.64917	12.11477	4.70363
2395.590	13.92725	4.70579	12.11636	4.59569
2399.585	13.91921	4.65147	12.15059	4.57821
2403.573	13.89456	4.74294	12.18234	4.51568
2407.598	13.86591	4.73751	12.25808	4.45669
2411.575	13.88598	4.76564	12.26031	4.47337
2415.579	13.77005	4.85502	12.25166	4.59794
2419.574	13.70865	4.97416	12.29628	4.60151
2423.571	13.67614	5.00135	12.37098	4.58397
2427.587	13.68684	5.02853	12.36802	4.62777
2431.579	13.72310	5.03380	12.35805	4.61774
2435.571	13.75662	5.05538	12.38403	4.60562
2439.575	13.81607	5.01207	12.34185	4.70255
2443.575	13.86317	5.07165	12.29640	4.77194
2447.576	13.92031	5.12588	12.29663	4.72875
2451.571	13.98826	5.14562	12.20719	4.75953
2455.572	14.00496	5.20402	12.16145	4.64589
2459.573	14.03416	5.23531	12.09621	4.56789
2463.620	14.01786	5.18040	12.08760	4.59592
2467.572	14.06107	5.12666	12.11280	4.53665
2471.572	14.07394	5.11016	12.14527	4.41656
2475.568	14.09002	5.22340	12.15225	4.39599
2479.590	14.06941	5.15160	12.17169	4.43259
2483.574	14.07900	5.07001	12.20930	4.44727
2487.567	14.04923	5.04197	12.21172	4.48011
2491.579	13.98143	5.06345	12.29197	4.37302
2495.580	14.00936	4.66940	12.35554	4.42934
2499.571	14.04010	4.65383	12.28697	4.55677
2503.576	14.06567	4.59217	12.50318	4.50561
2507.575	14.03933	4.59687	12.55798	4.51008
2511.578	14.02716	4.52730	12.59198	4.49310
2515.566	14.00622	4.55539	12.64917	4.55916
2519.574	14.02171	4.46044	12.74225	4.59417
2523.576	14.05250	4.43040	12.78913	4.56402
2527.587	14.03199	4.43036	12.84041	4.52978
2531.618	14.04977	4.42506	12.92432	4.48699
2535.575	14.10513	4.36313	12.94054	4.48581
2539.570	14.14558	4.38141	13.00547	4.48507
2543.578	14.10452	4.36030	12.95159	4.43670
2547.575	13.99865	4.54897	12.85168	4.45541
2551.570	13.99954	4.54462	12.80062	4.46340
2555.584	13.94455	4.53626	12.75965	4.46414
2559.568	14.01363	4.78219	12.70489	4.39438
2563.583	14.00251	4.93313	12.50981	4.43936
2567.570	14.04271	4.84380	12.40837	4.46283
2571.580	14.04332	4.90910	12.47037	4.45687
2575.578	14.00924	4.90030	12.39667	4.42684
2579.569	14.02384	4.83587	12.38005	4.37339
2583.569	13.96498	4.81117	12.36916	4.27833
2587.572	13.93803	4.82866	12.36693	4.31544
2591.578	13.96790	4.86826	12.34652	4.37264
2595.570	13.97342	4.73300	12.35346	4.31501
2599.597	13.99445	4.68146	12.37946	4.30170
2603.569	13.97867	4.63320	12.40714	4.28845
2607.579	13.99118	4.54634	12.44671	4.29444
2611.568	13.96084	4.58362	12.47458	4.28399
2615.566	13.94883	4.52989	12.49966	4.28457
2619.571	13.95675	4.57024	12.51255	4.20548
2623.584	13.93335	4.57933	12.51338	4.22062
2627.571	13.91916	4.65063	12.49062	4.24201
2631.567	13.95177	4.65638	12.47234	4.25543
2635.568	13.95292	4.75852	12.44870	4.27112
2639.587	14.00160	4.74274	12.38093	4.32853
2643.569	14.01330	4.81057	12.33039	4.45124
2647.571	14.02361	4.83908	12.37979	4.31147
2651.574	13.97746	4.84933	12.37709	4.35464
2655.574	13.97087	4.83233	12.38199	4.41121
2659.572	13.95079	4.89270	12.36367	4.47251
2663.567	13.90083	4.88700	12.32880	4.59498
2667.600	13.89000	4.87059	12.35294	4.49014
2671.563	13.90890	4.74394	12.40368	4.58506
2675.581	13.92239	4.55598	12.40025	4.56735
2679.566	13.87098	4.49377	12.47361	4.60816
2683.572	13.85987	4.43277	12.50595	4.64198
2687.570	13.83437	4.46289	12.55982	4.62198
2691.608	13.78794	4.64958	12.56425	4.64322
2695.578	13.81675	4.68310	12.53150	4.72626
2699.568	13.79077	4.67796	12.52081	4.76708
2703.570	13.80987	4.59580	12.51456	4.76801
2707.579	13.87398	4.56456	12.54143	4.73131
2711.566	13.91956	4.54736	12.54975	4.74243
2715.571	13.94789	4.62821	12.52476	4.73940
2719.563	13.92545	4.70269	12.39651	4.78536
2723.570	13.91542	4.74810	12.39319	4.80323
2727.569	13.93941	4.78614	12.29822	4.78994
2731.584	13.96823	4.74026	12.27635	4.75275
2735.589	13.97328	4.77802	12.25948	4.73053
2739.626	13.97300	4.80394	12.25334	4.68408
2743.566	14.00884	4.80264	12.36506	4.58986
2747.568	14.01111	4.82210	12.39911	4.53370
2751.562	13.98903	4.82704	12.39580	4.48772
2755.587	13.90869	4.82021	12.41308	4.44697
2759.575	13.81968	4.85605	12.50538	4.42147
2763.571	13.79428	4.82416	12.48809	4.38935
2767.562	13.78773	4.78746	12.60649	4.33739
2771.590	13.69696	4.84049	12.59257	4.30729
2775.578	13.69893	4.86751	12.65323	4.29267
2779.574	13.77092	4.88105	12.68408	4.27593
2783.568	13.75022	4.83086	12.69630	4.28257
2787.570	13.64549	4.86966	12.70369	4.30643
2791.572	13.69612	4.85570	12.70281	4.38000
2795.565	13.72631	4.89165	12.69930	4.44677
2799.561	13.69190	4.94097	12.67889	4.55345
2803.571	13.75006	4.90884	12.66762	4.54690
2807.572	13.68691	4.98150	12.67166	4.61638
2811.573	13.70008	5.06840	12.57784	4.59544
2815.566	13.70772	5.14049	12.61928	4.54068
2819.587	13.73863	5.09265	12.58893	4.53328
2823.568	13.68000	5.11355	12.52859	4.51448
2827.576	13.68682	5.15556	12.47884	4.52803
2831.561	13.69851	5.14872	12.37328	4.52648
2835.569	13.66095	5.16153	12.32634	4.50731
2839.565	13.62730	5.14902	12.27529	4.43607
2843.564	13.58629	5.15192	12.18192	4.36920
2847.570	13.56950	5.19864	12.11446	4.40106
2851.564	13.60217	5.24677	12.15369	4.38505
2855.581	13.62181	5.15867	12.14876	4.36738
2859.569	13.57319	5.19384	12.06598	4.38960
2863.568	13.56472	5.23228	12.08281	4.38517
2867.561	13.54445	5.25082	12.07120	4.42181
2871.623	13.55801	5.21037	12.03467	4.51404
2875.564	13.55344	5.19027	12.09614	4.57472
2879.570	13.59565	5.23977	12.15969	4.64181
2883.564	13.62385	5.26758	12.17459	4.78260
2887.567	13.62995	5.27628	12.24201	4.77989
2891.560	13.60897	5.26733	12.29275	4.78527
2895.575	13.60592	5.25315	12.34048	4.79838
2899.574	13.58779	5.22646	12.40098	4.77824
2903.563	13.61276	5.20438	12.46744	4.77348
2907.565	13.55177	5.15700	12.51555	4.73321
2911.573	13.55954	5.07171	12.52180	4.70856
2915.564	13.53587	5.07281	12.57332	4.63573
2919.469	13.49155	5.07049	12.59557	4.57136
2923.438	13.46015	5.07837	12.60769	4.50411
2927.453	13.44106	5.07374	12.63133	4.45648
2931.436	13.46378	5.02870	12.64777	4.39898
2935.442	13.44698	5.01066	12.67303	4.38497
2939.486	13.42742	4.98526	12.67634	4.34828
2943.449	13.40281	4.99956	12.65741	4.36434
2947.437	13.37989	4.98360	12.63057	4.41388
2951.442	13.37296	5.01685	12.58661	4.47897
2955.434	13.39675	5.04610	12.57592	4.57648
2959.455	13.39283	5.04213	12.56611	4.51966
2963.438	13.42045	5.04973	12.61103	4.57229
2967.449	13.44977	5.03974	12.66717	4.55438
2971.442	13.45569	5.02168	12.69006	4.57828
2975.437	13.43597	5.07348	12.72480	4.62069
2979.445	13.44355	5.11274	12.72253	4.65093
2983.444	13.44151	5.19430	12.75717	4.67399
2987.443	13.45383	5.25922	12.76959	4.69497
2991.437	13.49164	5.31254	12.81733	4.73805
2995.467	13.53955	5.42420	12.84350	4.71764
2999.438	13.55069	5.41516	12.84588	4.75448
3003.433	13.61733	5.41774	12.87938	4.76609
3007.439	13.62359	5.47712	12.87607	4.77763
3011.446	13.58132	5.51413	12.83510	4.80865
3015.436	13.55492	5.48082	12.81790	4.83186
3019.440	13.61447	5.47256	12.81542	4.84208
3023.431	13.63874	5.46624	12.77853	4.85503
3027.455	13.65073	5.47953	12.75309	4.84332
3031.438	13.66667	5.43762	12.72098	4.84809
3035.448	13.65116	5.37051	12.65980	4.83288
3039.434	13.59305	5.32509	12.59841	4.81535
3043.440	13.57984	5.20953	12.52152	4.78533
3047.438	13.53979	5.16629	12.48854	4.75032
3051.448	13.54957	5.09531	12.48539	4.66512
3055.434	13.60020	5.05472	12.50534	4.57742
3059.441	13.62523	4.98303	12.50101	4.50266
3063.442	13.66915	4.84365	12.46405	4.50817
3067.447	13.59469	5.02941	12.46438	4.46544
3071.442	13.61916	4.97173	12.53660	4.53767
3075.439	13.59037	5.02085	12.55777	4.54289
3079.441	13.52419	5.10540	12.71047	4.51478
3083.440	13.62638	5.33236	12.71172	4.62047
3087.455	13.64314	5.57884	12.78439	4.72158
3091.435	13.65720	5.51596	12.78944	4.73934
3095.440	13.63091	5.66681	12.82585	4.73520
3099.435	13.66419	5.77309	12.83165	4.82813
3103.459	13.63283	5.78968	12.82778	4.84076
3107.444	13.63677	5.80182	12.86737	4.86275
3111.439	13.68862	5.82780	12.89808	4.87457
3115.443	13.79866	5.78036	12.93816	4.76483
3119.433	14.02599	5.57630	13.19160	3.88126
3123.443	14.62949	4.88493	14.06383	1.77380
3127.440	15.04800	2.99898	14.66768	0.30657
3131.433	15.06109	1.72126	14.90204	0.39088
3135.444	15.22851	1.42363	14.88417	0.10439
3139.434	15.41665	1.40047	14.91634	-0.02351
3143.438	15.43787	1.35408	14.85421	0.06574
3147.437	15.49474	1.50775	14.90904	0.26445
3151.450	15.44352	1.66388	14.85660	0.21948
3155.435	15.46005	1.67150	14.82808	0.23716
3159.452	15.60740	1.70366	14.90765	0.18898
3163.435	15.64280	1.61809	15.00197	0.16967
3167.447	15.67602	1.54682	15.06764	0.11153
3171.433	15.71432	1.46273	15.13896	0.08863
3175.443	15.73858	1.44534	15.14578	0.02178
3179.433	15.73766	1.46650	15.13258	0.08669
3183.439	15.73888	1.42813	15.15358	0.14439
3187.433	15.74534	1.41176	15.18853	0.12324
3191.440	15.74741	1.38237	15.09196	0.16019
3195.450	15.74807	1.33845	15.12319	0.19330
3199.435	15.78421	1.32729	15.16102	0.24759
3203.434	15.77164	1.34470	15.13057	0.26468
3207.474	15.78097	1.37499	15.12083	0.29787
3211.485	15.78485	1.37834	15.11116	0.30824
3215.435	15.81220	1.46238	15.07026	0.37052
3219.434	15.83854	1.47153	15.08289	0.39874
3223.432	15.86360	1.48594	15.05056	0.44247
3227.438	15.90605	1.57076	15.03022	0.47011
3231.435	15.90993	1.63731	15.00165	0.51152
3235.451	15.95358	1.67400	15.02927	0.53557
3239.442	15.98145	1.69983	15.03365	0.58178
3243.431	16.01172	1.70060	15.04890	0.65883
3247.436	16.03756	1.66101	15.05094	0.64347
3251.435	16.04783	1.61351	15.02797	0.55727
3255.430	16.04984	1.59355	14.98004	0.11069
3259.432	16.07377	1.57541	14.91027	0.05300
3263.434	16.09254	1.61864	14.84503	-0.05981
3267.438	16.12912	1.66769	14.84070	0.03548
3271.448	16.16864	1.69904	14.81226	0.17595
3275.441	16.18597	1.69618	14.79354	0.14422
3279.463	16.18521	1.70443	14.76122	0.21929
3283.439	16.17489	1.77598	14.73376	0.29622
3287.434	16.16205	1.74321	14.66424	0.22311
3291.427	16.16733	1.72822	14.60723	0.31591
3295.441	16.19167	1.81626	14.52988	0.34412
3299.435	16.20128	1.83474	14.50904	0.44285
3303.445	16.24981	1.86177	14.49932	0.56887
3307.432	16.21233	1.89302	14.47154	0.53317
3311.435	16.22421	1.87576	14.44767	0.58385
3315.428	16.22512	1.90703	14.46282	0.56161
3319.439	16.22506	1.78840	14.48897	0.19998
3323.436	16.23462	1.71237	14.53630	0.03849
3327.431	16.28896	1.70554	14.56681	0.06066
3331.434	16.31612	1.72648	14.67802	0.01560
3335.437	16.32638	1.70888	14.69274	-0.14701
3339.432	16.32348	1.72885	14.74398	-0.21726
3343.449	16.33989	1.79738	14.80658	-0.18796
3347.441	16.30519	1.77564	14.86043	-0.24659
3351.471	16.18741	1.70909	14.92081	-0.30309
3355.445	16.15289	1.67578	14.92415	-0.26263
3359.437	16.03951	1.66073	14.94998	-0.30948
3363.433	16.01438	1.70807	14.98465	-0.25814
3367.433	15.93118	1.74137	15.00677	-0.26841
3371.446	15.88440	1.74316	15.03783	-0.26071
3375.432	15.81481	1.71292	15.05589	-0.28205
3379.436	15.75640	1.69447	15.07678	-0.26405
3383.440	15.72216	1.67475	15.11181	-0.23244
3387.445	15.67395	1.62451	15.12092	-0.19812
3391.431	15.64386	1.57734	15.09962	-0.15733
3395.430	15.68907	1.59535	15.11440	-0.09473
3399.435	15.69321	1.62125	15.02404	-0.04942
3403.444	15.72078	1.63183	14.94013	0.06266
3407.427	15.76536	1.68123	14.93490	0.10137
3411.437	15.80712	1.66939	14.96126	0.12935
3415.502	15.81759	1.74803	14.84264	0.21534
3419.436	15.84736	1.69103	14.80934	0.28021
3423.435	15.89510	1.76515	14.73288	0.33642
3427.428	15.91216	1.85011	14.70193	0.38774
3431.432	15.95649	1.97979	14.64694	0.36798
3435.426	15.99413	1.88018	14.64691	0.26984
3439.435	16.02745	1.53151	14.61362	0.31451
3443.432	16.06167	1.60102	14.61241	0.35192
3447.428	16.10809	1.63358	14.60414	0.30002
3451.430	16.12889	1.56882	14.62389	0.23751
3455.432	16.14664	1.57672	14.59166	0.20404
3459.425	16.19279	1.58973	14.59649	0.13943
3463.433	16.20993	1.62910	14.59321	0.09795
3467.429	16.23787	1.58424	14.59245	0.05786
3471.451	16.25553	1.51909	14.59879	0.02227
3475.434	16.28110	1.43029	14.64445	-0.04034
3479.434	16.33228	1.45634	14.61213	0.03484
3483.466	16.38344	1.44460	14.58905	-0.00938
3487.435	16.35644	1.47446	14.60360	-0.05603
3491.434	16.36686	1.59675	14.55965	-0.03627
3495.427	16.34471	1.66627	14.55565	0.06718
3499.428	16.32760	1.74813	14.55395	0.06424
3503.425	16.30213	1.70528	14.54349	0.33556
3507.436	16.33982	1.80163	14.51558	0.31900
3511.429	16.32814	1.79506	14.53151	0.36040
3515.428	16.26637	2.00269	14.55444	0.40459
3519.430	16.12309	2.03605	14.42816	0.41421
3523.437	14.50714	1.47539	14.26497	0.43662
3527.432	13.07747	0.11425	12.67771	0.37538
3531.437	12.72414	-1.98415	12.30727	-0.16164
3535.426	10.99740	-2.37126	10.74700	-0.84293
3539.431	10.35152	-2.74663	9.83455	-1.47090
3543.426	9.68305	-2.93447	8.76285	-2.01577
3547.427	7.93097	-3.95664	7.22788	-2.48329
3551.453	7.32190	-4.67373	6.08490	-2.86765
3555.435	4.20343	-5.53370	3.53812	-3.03656
3559.428	3.39619	-5.77943	2.66714	-3.41578
3563.426	0.69903	-6.07201	0.42524	-3.48125
3567.431	-0.21825	-6.20141	-0.94400	-3.62069
3571.476	-1.45162	-6.28846	-2.02639	-3.75725
3575.436	-2.92109	-6.35245	-3.71293	-3.74913
3579.432	-3.80441	-6.39788	-3.79156	-3.87997
3583.427	-3.58615	-6.44078	-4.08041	-3.95678
3587.430	-2.29619	-6.47592	-3.89587	-3.89951
3591.424	-1.83162	-6.43989	-3.37784	-3.95668
3595.437	-2.88985	-6.38385	-3.18101	-4.03550
3599.429	-3.12205	-6.43004	-3.66815	-4.06975
3603.428	-3.22470	-6.45552	-4.12401	-4.11317
3607.471	-3.47364	-6.44265	-4.35978	-4.12952
3611.434	-3.40524	-6.43522	-4.52765	-4.17624
3615.434	-3.34719	-6.48885	-4.53083	-4.19337
3619.426	-3.35019	-6.48220	-4.53783	-4.22694
3623.427	-3.24939	-6.49896	-4.29917	-4.23559
3627.433	-3.13271	-6.55343	-4.12399	-4.22404
3631.433	-3.17547	-6.53945	-4.24379	-4.25226
3635.426	-3.12380	-6.57682	-4.30961	-4.26769
3639.424	-3.07931	-6.67860	-4.41277	-4.29741
3643.443	-3.02051	-6.67267	-4.41980	-4.34371
3647.436	-2.91146	-6.69416	-4.42217	-4.33125
3651.431	-2.84301	-6.72249	-4.38072	-4.34625
3655.435	-2.82152	-6.72295	-4.41655	-4.36838
3659.431	-2.74395	-6.61911	-4.30119	-4.37829
3663.435	-2.74905	-6.51429	-4.31558	-4.39166
3667.434	-2.71691	-6.48983	-4.31691	-4.39101
3671.426	-2.71731	-6.20680	-4.32654	-4.40167
3675.421	-2.68668	-6.01834	-4.33271	-4.41148
3679.441	-2.70396	-6.18337	-4.35758	-4.39996
3683.428	-2.72214	-6.12929	-4.33313	-4.36897
3687.427	-2.73244	-6.12701	-4.32466	-4.33492
3691.428	-2.74665	-6.16769	-4.27797	-4.36879
3695.431	-2.77681	-6.19661	-4.25060	-4.38873
3699.426	-2.78775	-6.18475	-4.26144	-4.42273
3703.429	-2.56689	-6.29264	-4.26378	-4.41863
3707.424	-2.48168	-6.35117	-4.24159	-4.43398
3711.426	-2.58767	-6.35666	-4.20222	-4.48084
3715.427	-2.41494	-6.38310	-4.12984	-4.49649
3719.431	-2.45237	-6.36328	-4.11555	-4.47990
3723.428	-2.38224	-6.42767	-4.12809	-4.47460
3727.443	-2.45138	-6.42679	-4.09246	-4.49638
3731.433	-2.36128	-6.38182	-4.07473	-4.53922
3735.449	-2.36978	-6.43621	-4.18990	-4.55472
3739.429	-2.38514	-6.50880	-4.21012	-4.51596
3743.430	-2.21811	-6.48837	-4.25596	-4.50520
3747.430	-2.12159	-6.51232	-4.28399	-4.50982
3751.425	-2.06426	-6.46038	-4.25583	-4.49875
3755.442	-2.00400	-6.47749	-4.22227	-4.52343
3759.419	-2.11115	-6.47917	-4.13991	-4.50932
3763.441	-2.22049	-6.52898	-4.27743	-4.55650
3767.422	-2.15361	-6.53589	-4.25472	-4.59812
3771.431	-2.15433	-6.59468	-4.23846	-4.56855
3775.295	-2.34847	-6.60544	-4.28584	-4.54199
3779.317	-2.48847	-6.60734	-4.30267	-4.57400
3783.304	-2.69978	-6.55311	-4.29453	-4.61204
3787.297	-2.87356	-6.59401	-4.26420	-4.59897
3791.306	-2.32568	-6.58036	-4.25238	-4.60096
3795.300	-2.20827	-6.60760	-4.24905	-4.50859
3799.327	-2.00641	-6.61607	-4.25852	-4.49051
3803.302	-1.79981	-6.63506	-4.30053	-4.44446
3807.299	-1.62473	-6.64159	-4.36197	-4.40060
3811.303	-1.82708	-6.66407	-4.43303	-4.35518
3815.303	-1.84510	-6.65394	-4.50560	-4.34566
3819.298	-1.86087	-6.68904	-4.43071	-4.29479
3823.375	-1.82383	-6.72795	-4.39400	-4.23720
3827.313	-1.81528	-6.74648	-4.32039	-4.24501
3831.299	-1.82958	-6.74459	-4.20099	-4.23243
3835.297	-1.90277	-6.74794	-4.29712	-4.23777
3839.295	-1.96231	-6.76125	-4.27489	-4.27937
3843.299	-2.07578	-6.77601	-4.26524	-4.24647
3847.303	-2.46954	-6.78840	-4.33966	-4.32897
3851.298	-2.49382	-6.79450	-4.19931	-4.34617
3855.302	-2.50135	-6.77852	-4.20620	-4.35638
3859.312	-2.45270	-6.75426	-4.19316	-4.42721
3863.311	-2.09777	-6.72554	-4.22441	-4.51356
3867.302	-2.04381	-6.71362	-4.19916	-4.52317
3871.307	-2.02641	-6.72535	-4.12653	-4.51252
3875.291	-2.26187	-6.73245	-4.23278	-4.52029
3879.308	-2.07876	-6.75190	-4.21279	-4.53474
3883.294	-1.96122	-6.77998	-4.31109	-4.52788
3887.301	-2.24976	-6.77823	-4.02401	-4.52325
3891.321	-2.39916	-6.82204	-4.11609	-4.50088
3895.300	-2.42114	-6.81175	-4.05866	-4.50598
3899.297	-2.58182	-6.85199	-4.14157	-4.48852
3903.318	-2.30640	-6.91368	-4.11922	-4.50961
3907.304	-2.16959	-7.00764	-4.04394	-4.52296
3911.301	-2.33200	-6.98715	-4.11787	-4.52075
3915.290	-2.44128	-7.06156	-4.16663	-4.56433
3919.307	-2.51267	-7.07150	-4.15885	-4.54024
3923.297	-2.54286	-7.09436	-4.13224	-4.53715
3927.296	-1.92872	-7.04178	-4.03083	-4.44206
3931.301	1.12623	-6.95931	-1.32128	-3.73965
3935.295	1.98462	-4.10260	0.85347	-2.83160
3939.298	4.92080	-2.82700	3.09790	-0.71437
3943.297	7.05611	-2.74560	4.55455	-0.10525
3947.300	7.88877	-2.14713	6.02411	0.19352
3951.303	8.98172	-2.53653	6.40810	-0.12374
3955.296	9.91861	-2.76589	7.27404	-0.64359
3959.304	9.65189	-2.52742	7.63411	-0.90208
3963.294	9.82544	-2.44001	7.92622	-0.51851
3967.301	9.79925	-2.46421	7.88361	-0.27930
3971.299	9.49825	-2.39035	7.88814	-0.04438
3975.301	9.16917	-2.31737	7.87891	-0.17996
3979.308	9.76136	-2.20731	7.89990	-0.09464
3983.297	9.79850	-2.00868	7.98848	0.05360
3987.313	9.85365	-1.86188	7.98834	-0.10788
3991.299	10.01036	-1.82334	8.03309	-0.31057
3995.298	10.04802	-1.77241	8.03845	-0.26903
3999.306	9.99866	-1.76055	8.05849	-0.25034
4003.294	10.00480	-1.60935	8.06093	-0.34125
4007.325	10.12277	-1.43703	8.01669	-0.32783
4011.293	10.13840	-1.49042	7.95395	-0.33477
4015.330	10.14800	-1.49270	7.97111	-0.38665
4019.308	10.21241	-1.45190	7.92288	-0.36305
4023.293	10.30598	-1.49829	7.94455	-0.43230
4027.369	10.26778	-1.56305	7.93515	-0.48687
4031.306	10.22834	-1.58721	7.97739	-0.49438
4035.307	10.13698	-1.53137	7.94212	-0.46452
4039.300	10.11192	-1.55914	7.93815	-0.45155
4043.302	10.20329	-1.63658	7.94319	-0.42790
4047.297	10.24036	-1.75378	7.87869	-0.41524
4051.314	10.24360	-1.81252	7.87375	-0.40946
4055.296	10.35171	-1.77893	7.94104	-0.36323
4059.294	10.28352	-1.79986	7.92157	-0.34279
4063.298	10.18382	-1.86786	7.94927	-0.36974
4067.299	10.06094	-1.84054	7.95733	-0.40392
4071.302	10.17077	-1.92508	8.02353	-0.35208
4075.301	10.23543	-2.02073	7.99024	-0.30159
4079.293	10.22846	-2.01007	7.96113	-0.31131
4083.313	10.20805	-2.06565	7.95606	-0.35583
4087.298	10.33334	-2.02239	7.94723	-0.38074
4091.292	10.40632	-1.92718	7.93454	-0.36289
4095.319	10.11541	-2.02295	7.85068	-0.36016
4099.303	10.01898	-1.97900	7.74527	-0.36273
4103.306	9.90034	-2.05795	7.80959	-0.38353
4107.297	9.84729	-2.10956	7.78231	-0.37622
4111.298	10.31482	-2.20687	7.86985	-0.37112
4115.298	10.37042	-2.14724	7.85565	-0.36274
4119.295	10.33089	-2.18605	7.84019	-0.40725
4123.293	10.36778	-2.18909	8.00009	-0.43343
4127.294	10.30132	-2.27233	8.04991	-0.44804
4131.293	10.16081	-2.31146	8.02674	-0.43192
4135.291	10.07622	-2.34978	8.09219	-0.42053
4139.298	10.34845	-2.28595	8.12680	-0.37625
4143.292	10.35188	-2.28705	8.09917	-0.36257
4147.308	10.37407	-2.25973	8.15431	-0.37398
4151.298	10.40245	-2.16915	8.16374	-0.34069
4155.296	10.36545	-2.07731	8.09107	-0.30654
4159.297	10.28450	-2.04913	8.10323	-0.23917
4163.301	10.25194	-2.00374	8.12544	-0.23746
4167.298	10.14905	-2.00600	8.06976	-0.21574
4171.297	10.11967	-1.99292	8.06986	-0.18108
4175.292	10.02880	-2.00595	8.04764	-0.14477
4179.292	9.97062	-1.94842	8.06591	-0.13679
4183.295	9.96046	-1.97266	8.06511	-0.14949
4187.300	9.91869	-1.97269	8.07769	-0.14110
4191.295	9.83105	-1.95886	8.08898	-0.09873
4195.307	9.71218	-1.97825	8.10255	-0.07112
4199.300	9.63269	-2.04341	8.14541	-0.08892
4203.299	9.56704	-2.07114	8.12279	-0.10428
4207.291	9.58084	-2.10593	8.12199	-0.09788
4211.292	9.59732	-2.13817	8.14062	-0.10371
4215.294	9.58738	-2.12120	8.14550	-0.19339
4219.320	9.63431	-2.11007	8.14015	-0.18058
4223.293	9.58108	-2.12790	8.13016	-0.23913
4227.290	9.56207	-2.11055	8.08180	-0.35274
4231.310	9.58977	-2.10945	8.08226	-0.40674
4235.297	9.68614	-2.07039	8.05609	-0.48402
4239.295	9.72710	-2.06901	8.06448	-0.49265
4243.297	9.77225	-2.07810	8.06188	-0.59494
4247.292	9.90501	-1.94040	8.06728	-0.53828
4251.291	9.98976	-1.81209	8.06119	-0.49085
4255.290	10.06939	-1.85156	8.04107	-0.52185
4259.290	10.14352	-1.87066	7.98420	-0.50025
4263.293	10.16565	-1.82518	7.93934	-0.53084
4267.292	10.21947	-1.83909	7.87051	-0.55338
4271.313	10.25939	-1.81060	7.85078	-0.53307
4275.296	10.26516	-1.85196	7.88346	-0.41241
4279.291	10.27453	-1.94289	7.90511	-0.32614
4283.302	10.26903	-1.93350	7.84240	-0.24917
4287.298	10.24194	-1.89619	7.82918	-0.25789
4291.292	10.21700	-1.84746	7.81593	-0.15985
4295.292	10.16206	-1.86815	7.80557	-0.03489
4299.294	10.06559	-1.72582	7.80723	0.01802
4303.299	10.03789	-1.62241	7.82774	0.09133
4307.291	10.05375	-1.58456	7.88565	0.24405
4311.283	10.08529	-1.26083	7.92449	0.12631
4315.295	10.33862	-0.23346	8.00467	0.87031
4319.290	10.86423	1.47574	8.04054	3.88647
4323.300	10.77093	3.69531	8.10000	5.36200
4327.292	10.84425	4.14553	8.22669	5.89375
4331.296	10.76788	4.31755	8.29253	5.77171
4335.290	10.63293	4.17480	8.21896	5.72308
4339.294	10.45315	3.83051	8.25199	5.62613
4343.289	10.48811	3.62076	8.30830	5.64478
4347.290	10.75593	3.29441	8.35855	5.55759
4351.304	10.76894	3.19377	8.43239	5.55084
4355.292	10.85514	3.45636	8.45371	5.58660
4359.303	10.97071	3.41829	8.51205	5.60292
4363.293	10.98918	3.53126	8.56864	5.63317
4367.306	10.93414	3.60711	8.56214	5.71276
4371.301	10.96423	3.65792	8.59563	5.64822
4375.289	11.01020	3.56561	8.58699	5.67745
4379.293	11.08235	3.49842	8.67573	5.70332
4383.289	11.10751	3.45475	8.72316	5.69866
4387.304	11.11953	3.47689	8.80347	5.66002
4391.293	11.16019	3.60250	8.88186	5.63244
4395.289	11.10202	3.68394	8.89407	5.62897
4399.293	11.02540	3.79038	8.92193	5.66759
4403.292	10.99374	3.84618	8.95344	5.57494
4407.336	10.92997	4.16878	8.90885	5.50387
4411.304	10.90042	4.22533	8.82116	5.53602
4415.291	10.90272	4.21117	8.82240	5.80488
4419.294	10.89202	4.15081	8.82817	5.81590
4423.301	10.79904	4.10650	8.76450	5.69971
4427.288	10.75035	4.10772	8.72445	5.72476
4431.288	10.74137	4.12654	8.74074	5.86113
4435.310	10.65867	4.10747	8.69353	5.97420
4439.349	10.64458	4.00546	8.75073	5.95934
4443.286	10.61984	4.02975	8.74297	5.94394
4447.294	10.55097	3.97279	8.74775	5.98927
4451.284	10.48305	3.98395	8.70672	6.06110
4455.305	10.40557	3.90856	8.75950	6.08682
4459.295	10.44146	3.98647	8.75366	6.08031
4463.282	10.28404	3.95883	8.72559	6.12673
4467.296	10.23142	4.01330	8.77645	6.10803
4471.300	10.31028	3.89522	8.81440	6.05892
4475.285	10.29740	3.84728	8.80001	5.77981
4479.282	10.33913	3.88352	8.81743	5.61661
4483.306	10.29589	3.98151	8.82126	5.39677
4487.292	10.30264	4.05387	8.79504	5.41803
4491.288	10.33118	3.94876	8.77075	5.45944
4495.294	10.30250	4.02242	8.76365	5.55267
4499.291	10.25197	4.13186	8.68327	5.52163
4503.287	10.29015	4.03445	8.61171	5.55466
4507.288	10.30430	3.93739	8.64844	5.57697
4511.287	10.47280	3.97997	8.54040	5.60138
4515.288	10.55423	3.99701	8.40732	5.54928
4519.288	10.73085	3.98632	8.35860	5.65268
4523.287	10.83036	3.99812	8.31914	5.65271
4527.287	10.79677	3.92521	8.24145	5.69785
4531.291	10.94492	3.87601	8.20814	5.71936
4535.289	10.91681	3.85718	8.11184	5.74170
4539.287	10.92803	3.76673	8.09902	5.72800
4543.311	10.93772	3.64248	8.02871	5.72098
4547.291	10.94583	3.64293	8.05158	5.67330
4551.285	10.96088	3.65789	8.09905	5.70050
4555.293	10.96387	3.62398	8.12987	5.66071
4559.291	10.92992	3.67054	8.19056	5.75436
4563.289	10.93961	3.67421	8.16934	5.76375
4567.281	10.91693	3.71203	8.35967	5.74575
4571.287	10.89047	3.72434	8.46165	5.69967
4575.321	10.87012	3.70865	8.50627	5.72386
4579.291	10.82282	3.71471	8.63685	5.61299
4583.286	10.75981	3.74086	8.65150	5.90606
4587.287	10.71705	3.82134	8.57444	5.92468
4591.288	10.67318	3.92284	8.53057	6.03003
4595.288	10.60989	4.25669	8.53969	6.03759
4599.291	10.61708	4.13456	8.59621	6.14276
4603.286	10.66716	4.18915	8.44256	6.19060
4607.290	10.65357	4.24236	8.36654	6.27504
4611.295	10.60409	4.17082	8.38117	5.99534
4615.297	10.58961	4.09413	8.37259	6.14068
4619.284	10.62387	4.03854	8.31428	6.02195
4623.304	10.67150	4.11923	8.42860	6.00894
4627.163	10.63597	4.22324	8.55219	5.79240
4631.163	10.59877	4.21329	8.61096	5.55983
4635.154	10.62406	3.70894	8.74825	5.48815
4639.161	10.66385	3.80147	8.63738	5.47885
4643.156	10.59047	3.77125	8.55518	5.72271
4647.166	10.58905	3.91976	8.64034	5.72788
4651.160	10.60109	3.95211	8.61128	5.71526
4655.155	10.76913	3.89791	8.58299	5.82652
4659.163	10.74788	3.83546	8.62591	5.64738
4663.166	10.73473	3.96732	8.77039	5.46762
4667.157	10.78884	4.01869	8.68911	5.46024
4671.176	10.69637	3.99299	8.70129	5.44341
4675.161	10.71655	3.99635	8.64024	5.90057
4679.159	10.71214	4.08256	8.57656	5.95965
4683.159	10.62687	4.11247	8.52824	6.07028
4687.160	10.65800	4.12259	8.47959	6.07333
4691.159	10.66169	4.13945	8.52605	5.95436
4695.161	10.62979	4.12290	8.51501	5.91288
4699.158	10.62001	4.14140	8.52086	5.91634
4703.166	10.54221	4.08786	8.47787	5.70367
4707.167	10.53924	4.08634	8.42510	5.96805
4711.163	10.51134	4.00428	8.42780	5.83314
4715.156	10.47091	3.93230	8.30813	6.03520
4719.152	10.43510	3.98391	8.17179	6.03099
4723.159	10.43498	3.98361	8.15927	5.97943
4727.206	10.48898	3.94509	8.09591	5.86086
4731.179	10.53348	3.83947	8.07942	5.86526
4735.160	10.57373	3.83583	8.10513	5.81035
4739.157	10.47943	4.11105	8.00815	5.82328
4743.165	10.55932	4.35615	8.16394	5.78625
4747.159	11.97823	4.43631	10.57961	5.65076
4751.171	13.78480	4.71411	12.33501	5.22264
4755.159	15.00026	4.77264	13.61129	3.81099
4759.161	15.50165	4.21979	15.14689	1.95227
4763.163	15.82931	3.21491	15.20004	1.43731
4767.157	16.10459	2.32403	15.36864	0.70970
4771.163	16.24091	1.67728	15.30732	-0.22510
4775.164	16.31171	1.79402	15.19493	-0.65984
4779.162	16.21849	2.09819	15.04200	-0.22455
4783.161	16.24914	2.20211	14.49539	0.61892
4787.166	16.29056	2.59220	14.49278	0.85023
4791.158	16.31731	2.59287	15.02161	0.84786
4795.179	16.44569	2.07638	15.17383	1.00598
4799.161	16.54061	1.98812	15.20157	1.09145
4803.157	16.56629	1.94264	15.01739	0.67246
4807.156	16.62692	1.94497	14.82898	0.71893
4811.180	16.62063	2.13609	14.87102	0.67700
4815.163	16.62414	1.94024	14.89828	0.55501
4819.156	16.67195	1.98712	14.86912	0.54505
4823.154	16.65437	2.01838	14.94866	0.52248
4827.163	16.66747	1.93507	14.91845	0.51647
4831.161	16.69821	2.03073	14.95165	0.33853
4835.159	16.66587	1.93212	14.91098	0.50960
4839.150	16.64569	1.94526	14.84754	0.42627
4843.180	16.64366	2.04322	14.82956	0.35138
4847.165	16.64544	2.08959	14.82697	0.40591
4851.157	16.62227	2.08564	14.86110	0.38133
4855.157	16.63052	2.05518	14.84844	0.33977
4859.160	16.61213	1.95123	14.84712	0.46779
4863.168	16.60809	2.10046	14.85832	0.49056
4867.164	16.59023	2.02220	14.91006	0.46785
4871.157	16.62245	2.11236	14.81133	0.76001
4875.167	16.62553	2.32492	14.99246	0.67408
4879.159	16.65252	2.23917	14.99498	0.66039
4883.155	16.67844	2.34106	15.03679	0.69865
4887.154	16.69302	2.31294	15.02531	0.74366
4891.156	16.68179	2.32807	14.96691	0.68566
4895.164	16.68815	2.28750	15.06211	0.69132
4899.163	16.74474	2.43275	15.01860	0.71013
4903.152	16.76906	2.35306	14.95216	0.68049
4907.159	16.78380	2.37475	14.95033	0.65237
4911.167	16.80453	2.34300	14.91439	0.68666
4915.211	16.83993	2.36564	14.88435	0.63276
4919.174	16.84134	2.27490	14.81530	0.61127
4923.155	16.89121	2.16124	14.74623	0.54839
4927.158	17.05194	1.75346	15.45152	0.24107
4931.151	17.23235	0.34475	16.81528	-1.44706
4935.159	17.40480	0.71730	16.82965	-1.90580
4939.157	17.26563	0.65823	16.62516	-1.93353
4943.150	17.48902	1.16754	16.50646	-1.57070
4947.170	17.37137	0.77871	16.17404	-1.17825
4951.159	17.45127	0.99451	15.94396	-0.87497
4955.167	17.41833	0.78830	15.88982	-0.75299
4959.151	17.56349	0.74446	16.07531	-0.83398
4963.158	17.61387	0.72231	16.12669	-0.89620
4967.163	17.63175	0.63100	16.14485	-0.96384
4971.166	17.62839	0.65363	16.32124	-1.25417
4975.157	17.60659	0.74369	16.26035	-1.14506
4979.157	17.59390	0.74979	16.20313	-1.12204
4983.160	17.58508	0.73632	16.18494	-1.05979
4987.157	17.57484	0.66107	16.25338	-1.20322
4991.156	17.58043	0.72497	16.32936	-1.19493
4995.161	17.58404	0.69585	16.29228	-1.30334
4999.155	17.56895	0.63527	16.39548	-1.33720
5003.159	17.53931	0.63789	16.45672	-1.43803
5007.149	17.50543	0.55910	16.45046	-1.43022
5011.159	17.48528	0.52695	16.48431	-1.45235
5015.166	17.45718	0.40430	16.47591	-1.42791
5019.176	17.42685	0.37020	16.49460	-1.49042
5023.158	17.37474	0.23611	16.47301	-1.45770
5027.159	17.35833	0.19038	16.45822	-1.52625
5031.159	17.35294	0.19601	16.45215	-1.50580
5035.167	17.35695	0.16571	16.37704	-1.40200
5039.154	17.34363	0.11421	16.33516	-1.43390
5043.155	17.37878	0.08324	16.22538	-1.43754
5047.211	17.34783	0.08944	16.17464	-1.42605
5051.171	17.38674	0.36602	16.16889	-1.47306
5055.159	17.42086	0.47114	16.15825	-1.47621
5059.151	17.49722	0.68370	16.10990	-1.52319
5063.157	17.41589	0.78947	16.03180	-1.53362
5067.155	17.44088	0.99480	16.00713	-1.64828
5071.148	17.43390	1.05471	15.94988	-1.61249
5075.165	17.41533	0.95929	15.98161	-1.62114
5079.153	17.37695	0.96108	15.96897	-1.69922
5083.153	17.39325	1.02569	15.95890	-1.74564
5087.160	17.37765	1.06143	15.98409	-1.70857
5091.151	17.41332	1.08912	15.95048	-1.75158
5095.152	17.40484	1.11702	15.94015	-1.79347
5099.152	17.38543	1.13516	15.94135	-1.73087
5103.163	17.36172	1.16733	15.96479	-1.74549
5107.152	17.38629	1.22177	16.00271	-1.67130
5111.150	17.42287	1.27652	16.05965	-1.54651
5115.156	17.42192	1.06805	16.13651	-1.50901
5119.164	17.45477	1.03544	16.08974	-1.47136
5123.154	17.48663	0.87189	16.02864	-1.41837
5127.151	17.48263	0.69401	15.98120	-1.32569
5131.150	17.48826	0.52090	16.00484	-1.27265
5135.154	17.49261	0.40334	15.91826	-1.16175
5139.156	17.48453	0.59388	15.89733	-1.19324
5143.153	17.44856	0.52310	15.79618	-1.19579
5147.147	17.43939	0.41958	15.75821	-1.14292
5151.170	17.41343	0.31980	15.79306	-1.14624
5155.156	17.39720	0.43945	15.75849	-1.16604
5159.169	17.43211	0.51665	15.72573	-1.14007
5163.151	17.38688	0.50279	15.72244	-1.17729
5167.151	17.37894	0.54592	15.78028	-1.22041
5171.158	17.35959	0.79545	15.81355	-1.29324
5175.148	17.34205	0.76380	15.90123	-1.28083
5179.166	17.30568	1.07133	15.91684	-1.25544
5183.199	17.27545	0.92323	16.02392	-1.21628
5187.168	17.32006	1.06195	15.95989	-1.16029
5191.165	17.38832	0.99077	15.93373	-1.15170
5195.153	17.45919	1.10247	15.94146	-1.15899
5199.154	17.55650	1.13594	15.98528	-1.20515
5203.177	17.44537	1.00456	16.08969	-1.24722
5207.171	17.49778	1.03996	15.98032	-1.17877
5211.153	17.48117	1.05434	15.99337	-1.18402
5215.151	17.55783	0.98429	15.87862	-1.16055
5219.154	17.48074	0.97276	15.85552	-1.18237
5223.176	17.46037	0.79584	16.00179	-1.22843
5227.167	17.45355	0.73999	15.89554	-1.26599
5231.157	17.35025	0.78755	15.88647	-1.33575
5235.148	17.41637	0.85056	16.01179	-1.37251
5239.150	17.28237	0.69997	16.01160	-1.35053
5243.158	17.28631	0.63030	15.97000	-1.32337
5247.149	17.24793	0.62478	15.92673	-1.21998
5251.181	17.24938	0.72997	15.91939	-1.25311
5255.157	17.24422	0.73139	15.88888	-1.18985
5259.151	17.27264	0.78038	15.89673	-1.08182
5263.144	17.39286	0.74376	15.83200	-1.00149
5267.154	17.46732	0.86352	15.74858	-0.94365
5271.176	17.51209	0.99967	15.67142	-0.95786
5275.157	17.32373	1.02534	15.62952	-0.96404
5279.148	15.70268	0.71989	14.34890	-0.68369
5283.154	14.42193	0.66059	12.00884	-0.56557
5287.148	12.27199	0.79698	10.38673	0.81914
5291.167	11.67363	0.59726	8.74799	1.68583
5295.147	9.77517	0.13770	7.96918	1.70241
5299.157	9.58832	-1.48270	7.11257	1.87688
5303.147	9.10052	-1.01150	7.11648	1.97470
5307.150	8.65210	-0.85534	6.40704	2.06411
5311.148	8.07514	-0.52289	5.65973	2.14564
5315.162	7.25269	-0.10331	4.88688	2.22814
5319.154	6.81267	-0.42653	4.35121	2.28234
5323.154	6.92518	-0.31686	4.24749	2.30539
5327.158	7.17099	-0.68194	4.97347	2.30736
5331.148	7.33454	-0.49148	5.24299	2.40861
5335.151	7.48324	-0.61729	4.89422	2.31520
5339.145	7.46802	-0.55250	4.21200	2.38855
5343.166	7.27201	-0.56339	4.23996	2.48548
5347.152	7.34565	-0.43074	4.10078	2.57611
5351.148	7.26908	-0.14703	4.01764	2.56744
5355.154	7.23135	-0.05719	4.15255	2.57352
5359.147	7.39352	-0.36236	4.20706	2.61639
5363.158	7.42854	-0.37820	4.26511	2.62028
5367.154	7.44167	-0.32652	4.38388	2.62929
5371.158	7.37138	-0.32529	4.26610	2.65344
5375.141	7.35454	-0.32987	4.27980	2.62747
5379.159	7.29965	-0.39118	4.27708	2.74718
5383.144	7.20915	-0.27697	4.21930	2.97548
5387.216	7.14663	-0.16095	4.28288	3.14997
5391.148	7.08803	-0.06002	4.34546	2.97926
5395.147	7.02746	-0.14040	4.36150	2.82966
5399.149	7.03817	-0.23890	4.40041	2.87708
5403.148	6.91662	-0.04946	4.40557	2.81043
5407.155	6.93000	-0.13784	4.34381	2.75359
5411.156	6.92841	-0.10693	4.35654	2.84643
5415.148	6.90945	-0.07687	4.11574	2.78976
5419.151	6.89402	-0.08380	4.14710	2.93450
5423.149	6.88350	0.01942	4.10051	2.94285
5427.149	6.88277	0.04051	4.05584	2.67569
5431.142	6.78987	0.07666	4.09888	2.62825
5435.151	6.74087	0.05054	4.12567	2.57118
5439.146	6.59420	0.05537	4.15816	2.44851
5443.166	6.72259	0.02090	4.09557	2.37299
5447.147	6.79229	-0.06401	4.11411	2.22699
5451.156	6.83032	-0.05934	4.12796	2.18906
5455.150	6.96683	-0.10577	4.11359	2.18021
5459.147	7.09214	-0.15150	4.21429	2.11908
5463.147	7.25081	-0.17061	4.27281	2.10214
5467.146	7.30559	-0.25887	4.29848	2.11276
5471.200	7.39959	-0.31253	4.40051	2.10164
5475.159	7.41734	-0.36476	4.47360	2.16711
5479.145	7.35732	-0.39206	4.39109	2.33028
5483.031	7.36625	-0.43471	4.31620	2.41578
5487.025	7.29160	-0.43548	4.38741	2.47416
5491.021	7.27023	-0.36136	4.20536	2.46768
5495.028	7.21784	-0.32760	4.19232	2.57517
5499.026	7.13194	-0.27754	4.23219	2.58587
5503.016	7.12891	-0.21198	4.18043	2.63563
5507.030	6.96350	-0.07696	4.25912	2.64107
5511.023	7.00003	0.04543	4.27565	2.65076
5515.030	7.04460	0.08629	4.25457	2.63884
5519.016	7.03047	0.05117	4.17262	2.67799
5523.034	7.07512	0.01684	4.23981	2.68162
5527.028	7.07349	0.21055	4.27417	2.69025
5531.021	7.13456	0.42254	4.29011	2.63488
5535.019	7.10394	0.50090	4.34036	2.59628
5539.022	7.05352	0.35958	4.36533	2.43729
5543.046	7.01370	0.35882	4.39424	2.37464
5547.021	6.89903	0.41547	4.40648	2.28850
5551.029	6.95944	0.36888	4.46376	2.27309
5555.019	6.80142	0.40941	4.43744	2.22996
5559.020	6.92090	0.39347	4.44344	2.19224
5563.024	6.80286	0.35599	4.45732	2.07886
5567.028	6.83751	0.36204	4.47464	1.90432
5571.025	6.82072	0.19154	4.48379	1.82996
5575.023	6.77027	0.19960	4.49292	1.82868
5579.028	6.77316	0.16775	4.50500	1.81932
5583.023	6.79445	0.12118	4.52025	1.82014
5587.021	6.80480	0.16149	4.54474	1.80858
