time (ms)	lx (deg)	ly (deg)	rx (deg)	ry (deg)
0.000	-0.98819	4.12422	1.82110	0.62129
3.982	-0.97601	4.31589	1.48533	0.65102
7.977	-1.05386	4.23536	1.51908	0.28827
11.976	-1.01749	4.12173	1.38795	0.34671
15.972	-1.11665	4.14715	1.26778	0.47375
19.980	-1.13022	4.14232	0.87679	0.62613
23.978	-1.28075	4.05247	1.22439	0.35578
27.966	-1.51367	3.99947	1.23094	0.35782
31.981	-1.31555	2.36137	0.40194	0.25790
35.979	-1.34051	2.88816	-0.05353	-1.14043
39.979	-1.33249	2.77288	-0.33235	-0.22287
43.981	-1.62487	2.81018	-0.65387	0.01372
47.945	-1.95554	3.07429	-0.12434	-0.11647
52.019	-1.55249	2.60769	0.12846	-0.42961
55.979	-1.54671	2.51612	-0.52190	-0.23904
59.978	-1.71526	2.52903	-0.13622	-0.11704
63.878	-1.75089	2.35521	0.17293	0.04098
67.980	-1.66819	2.21859	1.06205	-0.07337
71.951	-1.56635	2.05834	0.47929	0.02945
75.979	-1.44629	1.79868	0.17310	-0.01275
79.984	-1.63016	1.84166	0.12250	0.17188
83.980	-1.67134	1.84512	0.18439	0.19024
87.981	-1.68463	1.87453	-0.11644	0.22409
91.979	-1.73090	1.73494	-0.10031	0.43020
95.883	-1.60075	1.46819	-0.52312	0.44900
99.979	-1.69490	1.48336	-0.23557	0.68582
103.982	-1.55420	1.43563	-0.57684	0.71407
107.985	-1.68724	1.28254	-0.70082	0.65390
111.946	-1.77134	1.16612	-0.71290	0.71830
115.980	-1.85844	1.21823	-0.64228	0.63553
119.981	-1.87708	1.44271	-0.85376	0.61907
123.981	-1.99042	1.57647	-0.85054	0.65790
127.881	-1.99771	1.44248	-1.04190	0.71083
131.980	-1.72825	1.49445	-1.15850	0.84662
135.980	-1.64898	1.61884	-1.20440	0.87505
139.978	-1.66093	1.87532	-1.00226	0.71673
143.982	-1.38324	1.96522	-1.01424	0.76561
147.980	-1.86675	2.25858	-0.99821	0.59776
151.974	-1.61907	2.34897	-0.08197	0.62006
155.976	-1.61855	2.02844	0.68427	0.52454
159.889	-1.78317	2.17771	0.48835	0.57055
163.984	-1.75141	2.18956	0.29610	0.66994
167.983	-1.72428	2.20000	0.52225	0.65713
171.980	-1.35187	2.24179	0.59498	0.77406
175.883	-1.52617	2.32140	0.59784	0.74932
179.983	-1.54656	2.30632	0.42604	0.91571
183.984	-1.72041	2.27510	0.17524	1.43160
187.983	-1.48848	1.94555	0.33332	1.39098
191.883	-1.43364	1.93036	0.29890	1.77806
195.961	-1.44515	1.91998	0.02184	1.78781
199.979	-1.67122	1.96396	-0.08684	1.66964
203.982	-1.67115	1.73440	-0.46530	2.14066
207.983	-1.59467	1.68215	-0.03452	2.46451
211.981	-1.64655	1.59732	-0.37343	3.35463
215.985	-1.76291	1.61683	-0.36122	1.99891
219.979	-1.90386	1.70011	-0.44971	1.97002
223.987	-1.82656	1.44478	-0.40040	1.50783
227.982	-1.82919	1.55088	-0.72330	1.94283
231.981	-1.87607	1.53218	-0.44840	1.36481
235.971	-1.91325	1.61913	-0.58697	2.24316
239.987	-2.02693	1.02266	-0.54677	2.27052
243.981	-1.86548	0.54359	-0.24078	2.04152
247.983	-1.76510	0.24127	0.33868	1.57385
251.983	-1.45455	0.91157	0.08274	1.26757
255.983	-1.80308	0.27425	0.56719	1.54363
259.984	-1.30089	1.32138	0.48738	1.59241
263.981	-1.28618	0.36002	0.14623	1.49846
267.981	-1.33887	1.66303	0.52041	1.70348
271.881	-1.31042	1.66508	0.65223	2.08917
275.982	-1.22129	1.78684	0.73692	2.34175
279.981	-0.99186	0.47285	0.39417	1.74932
283.983	-1.08939	1.34599	0.44629	1.64126
287.882	-1.19748	1.03428	0.27652	1.73971
291.984	-1.20589	1.50997	0.31878	1.90004
295.981	-1.17808	0.67324	0.36908	1.89042
299.983	-1.18875	1.37442	0.44793	2.11907
303.882	-1.22541	0.95375	0.37784	1.96605
307.981	-1.29472	1.25434	0.20055	2.03319
311.985	-1.05880	0.09774	0.51868	1.89544
315.989	-1.24382	0.74262	0.49552	1.86246
319.969	-1.25240	0.10916	0.38700	1.72551
323.981	-1.24945	0.64910	0.27614	1.87537
327.985	-1.28643	0.59208	0.29781	1.93201
331.982	-1.21933	0.32669	0.18194	1.90070
335.885	-1.26763	0.55922	0.14724	2.00314
339.985	-1.23652	0.03441	-0.01511	2.12499
343.985	-1.33148	0.35795	-0.05527	2.16227
347.981	-1.36873	0.29363	-0.03606	2.37462
351.886	-1.02156	0.51110	0.25473	2.51230
355.987	-1.04734	1.26061	0.66397	5.09517
359.981	-5.13102	1.84452	0.34044	5.71253
363.979	-0.79848	8.03127	0.79052	5.76217
367.881	NaN	NaN	-0.08783	2.81889
371.986	1.00263	4.53043	2.91136	2.14803
375.982	NaN	NaN	NaN	NaN
379.985	NaN	NaN	NaN	NaN
383.983	NaN	NaN	NaN	NaN
387.954	NaN	NaN	NaN	NaN
391.985	NaN	NaN	NaN	NaN
395.984	NaN	NaN	NaN	NaN
399.984	NaN	NaN	NaN	NaN
403.886	NaN	NaN	NaN	NaN
407.821	NaN	NaN	NaN	NaN
411.856	NaN	NaN	NaN	NaN
415.868	NaN	NaN	NaN	NaN
419.860	NaN	NaN	NaN	NaN
423.826	NaN	NaN	NaN	NaN
427.850	NaN	NaN	NaN	NaN
431.859	NaN	NaN	NaN	NaN
435.859	NaN	NaN	NaN	NaN
439.823	NaN	NaN	NaN	NaN
443.856	NaN	NaN	NaN	NaN
447.858	NaN	NaN	NaN	NaN
451.825	NaN	NaN	-3.34959	1.47126
455.862	NaN	NaN	2.39993	6.71037
459.853	NaN	NaN	13.68787	6.10287
463.860	NaN	NaN	NaN	NaN
467.862	NaN	NaN	7.67392	2.12342
471.858	NaN	NaN	13.69853	5.41885
475.860	NaN	NaN	7.49983	0.67223
479.859	NaN	NaN	5.54085	2.53003
483.857	-7.51132	12.87323	3.19887	2.89745
487.865	-6.98257	1.76919	6.48776	2.94022
491.854	-6.18642	1.75376	2.91723	2.91920
495.826	-1.48305	5.93742	3.50405	2.92779
499.863	1.27443	3.91502	3.48832	0.90908
503.862	1.17463	3.34293	2.32548	1.82692
507.860	1.14913	2.84872	3.22430	0.82571
511.861	0.78751	2.51298	2.10486	1.33807
515.861	1.39078	2.38585	2.22324	1.14900
519.866	0.57277	2.46694	1.54822	2.58120
523.859	0.90614	2.32866	1.22375	2.81759
527.863	-1.29851	2.48424	0.51686	2.91295
531.857	-0.93641	2.45059	0.46373	5.90341
535.854	-0.96348	2.57372	0.28411	3.21611
539.855	-0.62995	2.81332	0.37157	3.89965
543.822	-0.98306	2.62198	1.29345	1.29245
547.862	-1.18626	2.65807	0.88381	0.93490
551.860	-1.24585	2.72231	0.87220	-0.52678
555.884	-1.36399	2.78316	1.16887	0.49908
559.861	-1.07336	2.39786	1.19217	-0.32580
563.860	-1.22437	1.82550	1.25773	0.15880
567.863	-1.15630	1.50533	1.47742	0.44345
571.854	-1.04915	0.99934	1.10529	0.22116
575.860	-1.22722	0.96180	1.58773	0.70201
579.861	-1.08619	1.33501	1.81704	0.82050
583.864	-0.99782	1.99085	1.70712	0.91647
587.862	-1.04932	1.90923	1.64955	0.98164
591.825	-1.13898	1.56033	1.56675	0.94306
595.863	-1.02623	1.61687	1.57153	1.14250
599.863	-1.06870	1.87373	1.98546	1.14562
603.862	-1.13858	2.00009	1.91977	1.09354
607.862	-0.99499	2.11860	1.84332	1.15865
611.865	-1.17173	2.47533	2.00926	1.13344
615.851	-1.06143	2.63391	1.75128	1.14188
619.864	-1.11792	2.70506	0.41418	0.83266
623.866	-1.28725	2.64364	-0.62747	0.97170
627.865	-1.38046	2.60499	-0.10967	0.88756
631.863	-1.52771	2.15852	-0.32938	-0.26859
635.863	-1.65044	1.86665	0.55776	-0.75869
639.826	-1.83625	2.40228	-0.34906	-1.12781
643.866	-1.68825	1.77337	0.15551	-0.61365
647.861	-1.46963	1.08023	-0.03194	-1.13233
651.856	-1.15250	0.85577	0.08220	-1.40449
655.865	-1.16652	0.93594	0.29163	0.66085
659.831	-1.20911	0.93689	-0.25902	2.42043
663.862	-1.40388	1.81061	0.31052	2.22603
667.855	-1.23880	1.02182	0.28756	1.15772
671.825	-1.40951	1.23677	0.40690	0.76415
675.859	-1.28316	1.00767	0.95877	0.60507
679.861	-1.37421	0.77319	1.05101	0.53696
683.858	-1.29318	0.79018	1.02253	1.23648
687.863	-1.23206	1.26437	1.28313	0.46515
691.864	-1.35033	1.48518	0.37626	0.51969
695.865	-1.26217	1.90663	0.40142	-0.89174
699.868	-1.58857	1.78380	0.34079	-1.25074
703.827	-1.59269	2.39560	0.13161	0.35745
707.865	-1.63638	2.54239	0.17124	0.30703
711.866	-1.67717	2.73926	0.34454	0.23768
715.857	-1.70182	2.84491	0.64923	0.24107
719.864	-1.87874	3.19536	-0.00506	0.26551
723.867	-1.80670	3.05986	0.08857	0.27977
727.864	-1.68927	3.00266	-0.04087	0.33484
731.857	-1.89191	2.61077	-0.07532	0.26534
735.836	-1.89642	2.70821	0.14891	0.17345
739.873	-1.87557	2.42177	0.22785	0.10881
743.857	-1.84052	2.78801	0.64747	0.11996
747.856	-1.34430	1.88902	0.43006	-0.08714
751.864	-1.63484	2.33403	0.73111	-0.68416
755.867	-1.59596	1.95692	0.82101	0.74076
759.866	-1.59658	1.69852	1.15593	0.51595
763.889	-1.56784	1.61342	0.98807	0.55587
767.863	-1.50633	1.99034	0.24497	1.18825
771.864	-1.41878	2.10212	-0.04668	-0.10166
775.865	-1.38418	2.00874	0.24244	-0.78386
779.857	-1.35340	1.57090	0.39921	-0.18972
783.839	-1.33413	1.77700	0.99214	-0.33561
787.864	-1.12563	1.64251	0.74717	-1.18983
791.864	-0.88786	1.70749	0.94140	-1.21950
795.859	-0.97524	1.66654	0.34660	0.01310
799.867	0.13843	2.67651	0.91810	2.26896
803.829	0.74278	3.53512	2.11192	3.71857
807.867	0.75486	5.97519	2.76002	5.48424
811.859	2.25085	5.21965	2.93750	2.30178
815.866	1.15947	3.71316	2.15876	-0.25249
819.874	1.41864	2.75447	1.46254	1.41198
823.855	1.64498	3.45589	2.21541	1.76326
827.864	2.19715	3.60537	2.63012	2.13867
831.866	1.75456	3.88874	2.63395	2.40041
835.866	1.95896	4.13947	2.38053	2.89869
839.869	1.28425	4.98338	2.05363	3.52971
843.890	1.46204	4.94144	2.71617	4.33071
847.865	1.69148	4.86412	2.73571	3.82817
851.867	1.54410	4.95452	3.21691	3.53965
855.867	1.57022	5.00978	3.29263	3.71529
859.859	1.48848	5.12505	2.81526	4.00400
863.871	0.81942	5.53812	3.15300	4.19376
867.833	0.83585	6.55606	2.62657	4.14750
871.866	1.57429	5.45090	2.20996	3.92578
875.866	1.22251	5.41225	2.13135	3.98710
879.866	1.43181	5.36619	2.27994	4.03958
883.866	0.66337	5.60349	2.66392	3.88058
887.866	1.24840	5.70584	2.94282	3.57821
891.858	1.60652	5.35929	2.03266	3.14090
895.868	2.32139	2.98566	4.35427	2.96697
899.866	5.43804	2.43365	5.50582	-0.47529
903.830	7.48758	0.03087	9.42885	2.56966
907.860	7.96492	-2.32250	9.67741	-4.51352
911.867	7.39818	-1.42302	11.21649	-5.84158
915.866	8.55197	-3.66466	12.11275	-4.48051
919.833	8.98089	-6.00446	12.25619	-6.63779
923.867	9.14752	-5.29833	14.16802	-7.45656
927.864	9.27757	-6.04471	12.91171	-7.94643
931.869	8.78442	-4.87374	12.49169	-9.18639
935.867	9.25673	-5.90220	12.16368	-8.71879
939.867	9.12299	-5.89245	12.52960	-8.58102
943.867	8.62506	-6.31296	12.43812	-8.65507
947.869	8.88763	-6.58501	12.68883	-8.53625
951.860	9.35307	-6.59351	13.59914	-7.83412
955.869	9.26324	-6.56150	12.24073	-4.39441
959.867	9.09529	-6.29036	12.36516	-4.96796
963.867	9.37112	-6.21326	12.43866	-7.16805
967.867	9.31634	-6.22193	14.34934	-8.28090
971.866	9.11900	-6.07135	12.75790	-7.84418
975.867	9.14070	-5.88463	12.46204	-7.99807
979.868	8.77577	-4.42720	12.29505	-8.38781
983.866	9.15243	-5.55087	13.18379	-8.45378
987.868	9.31670	-5.35986	12.77636	-9.38315
991.844	9.53721	-5.33845	13.44876	-8.33872
995.867	8.04054	-5.67221	12.41071	-8.47990
999.868	8.75385	-4.96580	13.27200	-9.19882
1003.871	8.70529	-4.50191	13.16200	-7.52487
1007.871	9.04846	-5.30860	13.02766	-4.64837
1011.871	9.04435	-5.64442	14.62194	-6.93156
1015.867	8.50343	-5.22224	12.28048	-4.92087
1019.876	8.20661	-5.22368	12.87265	-5.66040
1023.872	8.14302	-4.42144	12.96534	-5.62630
1027.872	8.64146	-5.44720	14.58036	-5.78407
1031.855	8.78178	-5.46239	14.89274	-8.20090
1035.873	8.46944	-5.43603	14.74685	-5.70433
1039.871	8.64740	-5.44575	12.75252	-5.72322
1043.872	8.42151	-5.80407	13.92835	-8.08327
1047.835	8.63799	-6.19816	13.89187	-9.46874
1051.870	8.76452	-6.76925	13.95484	-10.17903
1055.869	8.68157	-6.32643	12.97691	-7.46849
1059.833	8.36790	-5.99022	13.80840	-7.78635
1063.872	8.16865	-5.73783	13.86511	-8.26452
1067.870	8.38384	-5.46889	11.77018	-9.15785
1071.871	7.87272	-5.64999	13.62059	-8.83636
1075.834	8.35806	-5.37337	13.02297	-8.05083
1079.871	8.42636	-5.01874	14.06490	-8.44101
1083.874	8.66467	-5.39953	15.59807	-8.93287
1087.869	8.74995	-4.35731	14.58736	-8.31719
1091.871	8.73972	-3.87183	13.54133	-6.45025
1095.871	9.16922	-5.26595	15.55646	-6.95723
1099.769	9.28241	-5.32294	15.87228	-8.02026
1103.828	9.43699	-6.63078	15.70503	-8.67873
1107.871	9.17706	-6.43246	15.78933	-8.52214
1111.872	9.38663	-5.39383	16.56620	-8.17714
1115.852	9.29527	-5.07800	17.45696	-8.80174
1119.877	9.34425	-3.88139	17.62438	-7.71234
1123.871	9.38250	-3.82834	16.49832	-7.12586
1127.870	9.52635	-4.12017	16.34490	-6.96238
1131.774	9.56699	-3.98636	16.00766	-6.73473
1135.874	9.62560	-3.90075	16.48901	-6.23626
1139.870	9.53434	-4.03942	16.04024	-5.15676
1143.874	9.41291	-3.86434	18.00912	-5.82864
1147.875	9.44839	-4.11691	16.03595	-6.28875
1151.874	9.41004	-4.06431	16.50402	-5.89976
1155.866	9.37356	-4.13550	15.65423	-7.20886
1159.865	9.48582	-4.53131	17.36730	-8.44249
1163.874	9.54242	-4.30687	16.86107	-8.43805
1167.833	9.86013	-5.24479	17.64730	-8.87093
1171.866	9.86724	-5.10775	17.11204	-8.22869
1175.870	9.96152	-4.49303	16.87573	-7.18068
1179.776	10.14785	-4.97824	17.19574	-7.80903
1183.871	10.09426	-4.65305	16.99331	-6.44341
1187.873	9.97849	-4.67089	16.34757	-7.13079
1191.873	9.63715	-4.80338	16.05784	-6.11767
1195.875	9.67386	-4.72613	16.29260	-6.77842
1199.846	9.80816	-4.97826	16.24898	-6.56401
1203.875	9.68059	-4.69630	15.86574	-5.64132
1207.871	9.42576	-5.77709	17.07594	-7.53727
1211.875	9.60456	-5.67400	16.04448	-7.06355
1215.871	9.75369	-5.69117	16.87950	-7.35970
1219.871	9.67126	-5.58351	16.47710	-6.51083
1223.874	9.64089	-6.27712	17.21358	-9.65776
1227.770	9.61370	-6.01720	16.51030	-9.29511
1231.833	9.62924	-5.80430	16.41391	-8.86130
1235.875	9.69434	-5.92307	16.07313	-8.65597
1239.858	9.75140	-5.59186	16.66437	-8.77913
1243.874	9.74200	-5.89519	15.89184	-9.17351
1247.872	9.73602	-5.83536	16.40697	-8.86352
1251.874	9.80597	-5.95298	16.20412	-9.04309
1255.874	9.75408	-5.83868	15.82589	-8.65308
1259.874	9.77360	-6.00282	15.86220	-8.50522
1263.872	9.72493	-5.93387	16.36606	-8.83732
1267.872	9.63076	-5.80345	16.25980	-8.46434
1271.876	9.61124	-5.72134	16.12055	-8.07311
1275.769	9.48777	-5.60940	15.70498	-7.73044
1279.875	9.49359	-5.66827	15.55393	-6.41877
1283.872	9.29703	-5.55350	15.27404	-5.83868
1287.874	9.08638	-5.60726	15.39559	-6.53883
1291.875	9.08597	-5.47158	15.14983	-5.61479
1295.873	9.13499	-5.42491	15.78524	-6.37973
1299.873	9.04570	-5.47384	15.87836	-7.84793
1303.835	9.01126	-5.26351	15.50900	-7.49396
1307.878	9.09616	-5.30549	15.02645	-7.40833
1311.872	8.93314	-5.31247	15.41278	-6.73312
1315.873	8.92176	-5.10647	15.46470	-6.94245
1319.873	8.85611	-5.08185	15.35101	-6.68253
1323.776	8.76421	-4.73883	15.51935	-6.67525
1327.875	8.69634	-4.87681	15.54826	-6.62198
1331.872	8.75296	-4.34064	16.21128	-6.65663
1335.871	8.73560	-4.44860	15.75152	-6.67188
1339.873	8.69127	-4.20276	15.44919	-7.04255
1343.874	8.69629	-3.69651	15.72731	-7.18938
1347.873	8.89664	-4.74486	15.74166	-7.04998
1351.872	8.73909	-4.31321	15.85115	-7.03787
1355.775	8.70483	-4.38350	15.66429	-9.64658
1359.839	8.73713	-4.62438	15.59241	-10.14736
1363.865	8.95101	-4.61710	15.73253	-10.26302
1367.865	8.78488	-5.63282	15.55724	-9.46658
1371.877	8.80485	-4.97422	15.85389	-9.58939
1375.874	8.96997	-5.75465	15.95527	-9.74804
1379.876	8.85412	-5.74567	15.89157	-9.35520
1383.875	9.03895	-5.28105	16.29712	-9.90209
1387.774	9.23737	-5.61646	16.44852	-9.34662
1391.875	9.16620	-5.49595	16.26003	-9.65244
1395.874	9.25821	-5.42500	16.20046	-9.43984
1399.875	9.45573	-5.47064	16.58077	-9.94636
1403.877	9.70485	-5.61103	16.95951	-9.35548
1407.846	9.85944	-5.65467	17.46565	-9.52788
1411.874	9.51640	-5.21961	17.75706	-9.75455
1415.870	9.27709	-4.84976	18.58991	-9.52911
1419.875	9.04793	-4.62708	17.36045	-9.11609
1423.878	9.36034	-4.42110	17.53852	-8.92661
1427.877	8.75972	-4.39216	16.75894	-9.62801
1431.874	8.73730	-4.95313	17.69574	-9.49248
1435.744	8.60735	-4.65295	17.33621	-9.44031
1439.877	8.33758	-4.29825	16.90841	-9.34684
1443.751	8.20634	-4.21057	16.49725	-9.23207
1447.752	8.35039	-4.24505	15.97601	-9.28427
1451.774	8.29197	-4.45452	16.04705	-9.46059
1455.745	8.33843	-4.27450	15.93396	-9.50718
1459.750	8.27200	-4.84917	15.26891	-9.32733
1463.753	8.37424	-4.82938	15.58534	-9.44018
1467.881	8.39994	-5.14413	15.45352	-9.33590
1471.752	9.29676	-5.70182	16.31420	-7.01304
1475.753	9.66431	-5.80518	17.15546	-8.95085
1479.752	9.54402	-6.45954	17.43182	-9.17543
1483.752	9.65134	-5.75566	18.59836	-10.20023
1487.753	9.51821	-5.64134	18.84098	-10.89031
1491.751	9.67292	-5.59749	17.76926	-10.89567
1495.730	9.36740	-5.77005	17.73164	-10.73036
1499.775	9.54237	-5.93538	17.51559	-11.07438
1503.750	9.81416	-5.91305	17.95407	-10.98776
1507.752	9.73590	-5.89568	17.88115	-10.40969
1511.752	9.57763	-5.97814	17.34698	-11.19833
1515.774	9.57964	-6.86572	17.61423	-11.28823
1519.754	9.56854	-7.48789	17.10401	-11.10947
1523.757	9.56366	-6.00153	16.62630	-10.77806
1527.753	9.62671	-7.06303	16.93657	-10.46243
1531.774	9.71806	-7.46860	17.12469	-9.57384
1535.740	9.48830	-7.36795	16.39418	-8.53901
1539.754	9.13105	-7.31500	16.00642	-9.72705
1543.715	9.17295	-7.37981	16.32110	-9.46717
1547.774	9.14319	-7.44502	17.57807	-10.43222
1551.749	9.39513	-7.56874	17.53184	-10.06930
1555.751	9.46153	-7.61927	17.11022	-10.27682
1559.753	9.35041	-7.43437	18.05651	-10.61084
1563.748	9.54964	-7.78148	18.36912	-10.65518
1567.752	9.67808	-7.70410	18.28441	-11.46071
1571.752	9.36080	-7.56459	17.21053	-10.82165
1575.755	9.45756	-7.50673	17.74965	-10.65095
1579.775	9.37039	-7.60182	16.40941	-10.53898
1583.753	9.44699	-7.61747	16.98714	-10.71365
1587.757	9.54339	-7.70116	18.05005	-10.98748
1591.753	9.42472	-7.84741	17.30692	-10.55502
1595.777	9.58132	-7.88962	16.67992	-10.45207
1599.752	9.22552	-7.76204	17.02803	-10.14465
1603.752	9.32618	-7.98327	16.82399	-10.20574
1607.752	9.20688	-7.60036	17.39325	-9.84938
1611.744	9.22305	-7.62072	17.29206	-10.10235
1615.715	9.36061	-7.75393	17.17846	-10.61668
1619.737	9.24508	-7.65166	17.33225	-11.08526
1623.720	9.58048	-7.78042	18.08363	-11.53543
1627.755	9.30766	-7.40776	17.32943	-11.96912
1631.749	9.51042	-7.33612	18.05546	-11.79938
1635.749	9.39491	-7.32368	17.29959	-11.52134
1639.751	9.37979	-7.10658	17.32018	-10.76402
1643.748	9.34558	-7.13204	17.20401	-11.57885
1647.751	9.32746	-7.11481	17.44201	-12.06206
1651.755	9.30464	-7.70722	17.76507	-11.98412
1655.754	9.42059	-7.47774	17.45999	-11.91265
1659.777	9.52538	-7.66402	16.98126	-11.50614
1663.749	9.25971	-7.92900	16.57199	-11.18411
1667.747	9.29746	-7.55594	16.62090	-11.28842
1671.716	9.07160	-7.30850	16.97122	-11.16064
1675.775	9.14547	-7.55895	17.15906	-10.86904
1679.717	9.36472	-7.08545	17.10533	-10.77124
1683.756	9.32593	-7.05585	17.67563	-11.11413
1687.754	9.16320	-7.20844	18.09731	-12.02592
1691.781	9.45235	-7.22802	17.30213	-10.78852
1695.752	9.80216	-7.23209	18.56542	-10.81457
1699.755	9.81065	-7.34206	18.35674	-11.45865
1703.735	9.86201	-6.92238	17.08608	-11.02628
1707.777	10.07295	-7.06399	17.17365	-11.21012
1711.752	9.95057	-6.82282	17.27294	-11.07032
1715.755	9.88579	-6.80695	18.35383	-11.52898
1719.753	9.87707	-6.11875	17.40215	-11.06574
1723.779	9.55688	-6.01859	17.26456	-11.10349
1727.756	9.75678	-6.89451	16.81869	-11.02741
1731.754	9.87203	-6.76424	16.53055	-10.26789
1735.753	9.70442	-6.98374	16.33829	-8.74478
1739.780	9.36090	-6.49637	17.23455	-12.24441
1743.744	9.39264	-6.50675	16.71581	-9.55328
1747.718	8.97830	-3.98392	15.72593	-7.42564
1751.755	8.14030	-3.36336	13.29285	-7.81707
1755.777	6.60527	-2.76825	13.51860	-3.98892
1759.756	5.10253	1.34114	10.76901	-5.37277
1763.756	4.48552	1.13795	11.04874	-1.89396
1767.758	2.99883	3.30463	9.37138	-0.24235
1771.778	3.97800	3.22505	8.76122	2.41863
1775.755	1.96241	5.30818	7.09253	4.39217
1779.760	2.28569	5.91911	6.38003	4.67645
1783.760	1.91722	6.22820	5.16435	8.85788
1787.709	1.94697	7.04388	4.77064	6.15855
1791.755	0.59146	8.87371	3.70579	8.00245
1795.758	1.63388	7.90874	4.45930	10.49715
1799.720	0.78813	8.26357	4.99125	11.35168
1803.780	0.57248	8.82912	4.22624	11.90749
1807.717	0.69769	8.86018	5.26361	11.88178
1811.757	1.10142	8.69159	4.55443	12.45133
1815.755	0.64692	8.93798	4.41067	11.57748
1819.778	0.78804	9.00464	4.84893	11.33012
1823.759	0.77553	9.38181	4.73190	11.78277
1827.757	0.84064	9.86277	4.51798	12.32555
1831.752	0.63563	9.89657	4.39414	11.68985
1835.749	0.70826	9.88007	4.52291	11.25056
1839.758	0.67513	9.92574	4.98381	8.78882
1843.756	0.58843	10.30056	4.81963	10.01754
1847.759	0.73149	10.04684	4.79553	10.45138
1851.778	0.96747	9.28607	4.83752	10.54629
1855.756	1.05277	8.85380	4.58599	10.77295
1859.756	1.04667	8.65600	4.32000	11.71699
1863.757	1.19715	8.42641	3.54232	11.87952
1867.779	1.34284	8.26675	3.61013	11.74691
1871.753	1.25282	8.89064	3.32817	11.94932
1875.758	1.27522	8.70656	3.29659	11.56923
1879.756	1.09978	9.51800	3.68774	11.84271
1883.751	1.10016	9.51336	4.76948	12.06232
1887.758	1.02759	9.96501	3.97778	11.40679
1891.755	0.72218	9.99188	3.49792	11.73335
1895.755	0.39072	10.46686	4.92415	9.66574
1899.752	0.35901	10.52223	5.01438	9.24002
1903.722	0.68230	10.23044	4.81490	10.17969
1907.775	0.49584	9.80367	4.46517	10.65017
1911.737	0.21073	10.27651	4.15981	10.58051
1915.760	0.28706	10.24055	4.07910	11.07561
1919.756	0.07125	10.16478	3.62175	11.38702
1923.719	0.25416	9.87587	2.98658	11.72544
1927.762	0.24696	9.75698	2.74207	12.33645
1931.760	0.27165	8.89518	2.74541	13.58506
1935.759	0.29890	9.02795	3.71824	13.16469
1939.760	0.84064	9.75671	4.14791	11.83920
1943.757	0.72972	9.40190	3.68947	12.98815
1947.757	0.92649	9.39949	4.48715	12.32568
1951.747	1.24766	8.70782	4.35938	12.42547
1955.751	0.75965	8.98492	4.38647	13.24396
1959.759	1.17252	8.99577	4.45762	13.00494
1963.752	1.01975	8.55340	4.18183	12.82669
1967.760	0.84173	9.22372	3.87425	12.70576
1971.757	0.82766	9.18332	3.10223	12.45446
1975.759	0.64816	9.54612	3.09394	10.93413
1979.753	0.73310	9.66516	4.63800	10.38442
1983.761	0.54200	9.92537	4.60205	10.16378
1987.719	0.16404	9.92502	4.81138	8.48263
1991.760	0.63657	9.29557	4.80214	10.53733
1995.755	0.56846	9.76031	4.80221	10.76233
1999.760	1.01414	9.79871	4.26225	10.53238
2003.763	0.62588	10.03176	4.19311	10.73696
2007.762	0.44510	10.78755	2.98195	10.68082
2011.757	0.19817	10.36866	2.69108	12.25380
2015.759	0.36087	10.32843	3.39656	13.85107
2019.722	0.51384	10.16294	4.40239	13.22457
2023.759	0.41929	10.26868	4.42787	11.39709
2027.758	0.42100	10.32268	4.59310	11.12317
2031.763	0.82059	10.09002	3.87850	11.56801
2035.744	0.76868	10.00710	4.04152	11.25624
2039.757	0.94864	9.03725	4.07767	10.39664
2043.758	0.76585	9.12083	3.98205	9.86972
2047.723	0.85997	9.63089	3.00594	10.68740
2051.761	0.52667	9.76707	4.82301	10.06400
2055.762	0.41534	10.30838	4.06693	11.34785
2059.754	0.53560	9.90974	4.35153	11.25847
2063.762	0.26024	10.31912	4.11443	12.55636
2067.762	0.62630	10.03263	4.02236	13.37126
2071.764	0.85163	10.04135	3.10109	12.48369
2075.748	0.81925	9.97117	3.27366	11.38640
2079.760	0.45629	10.25259	3.51174	11.61089
2083.759	0.19226	10.35366	4.19306	9.48603
2087.723	0.58262	9.92690	2.62412	12.58190
2091.755	-0.70915	10.20654	0.80414	12.80903
2095.761	-1.55946	10.24178	-0.15752	12.63276
2099.761	-3.56462	10.42372	-2.74185	11.96377
2103.725	-4.54587	11.87472	-2.73417	11.95175
2107.764	-4.64132	11.91907	-3.19981	11.59283
2111.761	-4.94846	12.26175	-5.11145	11.99811
2115.763	-5.00815	12.11761	-3.67909	12.08735
2119.764	-5.15340	12.15290	-4.93960	12.78404
2123.755	-5.19655	10.28182	-5.29051	13.04448
2127.765	-5.16634	9.94082	-4.66159	13.62000
2131.759	-5.15325	10.16755	-4.31830	11.66236
2135.759	-5.13860	10.13344	-5.01381	11.79760
2139.766	-5.15305	10.82579	-5.09596	11.64765
2143.760	-5.20831	10.37717	-5.42678	11.97234
2147.758	-5.29248	11.02377	-5.11391	11.30854
2151.758	-5.29009	11.82109	-4.73170	12.03490
2155.728	-5.13171	11.39247	-4.98058	12.92450
2159.757	-5.19433	11.31504	-4.26923	12.62622
2163.753	-5.35596	11.12388	-4.66706	13.00314
2167.762	-5.38309	11.18912	-4.70922	13.34646
2171.662	-5.35232	11.30063	-4.95053	13.48582
2175.761	-5.34919	11.39522	-4.84420	12.35531
2179.762	-5.57589	11.45573	-4.67954	12.43087
2183.762	-5.69303	11.36626	-4.85738	12.71292
2187.764	-5.12947	11.44538	-4.86409	11.61079
2191.762	-5.47314	12.63208	-4.74000	11.80892
2195.761	-5.42193	13.07069	-4.42994	12.46990
2199.762	-5.29750	11.62589	-4.32545	12.19048
2203.766	-5.55875	10.99105	-4.70949	13.18931
2207.765	-5.45031	9.77077	-5.04043	13.66566
2211.763	-5.35955	10.64080	-4.76670	14.64325
2215.761	-5.37387	9.69926	-5.08783	14.22066
2219.765	-5.44744	10.37997	-4.89722	14.32304
2223.726	-5.19212	9.99948	-5.27466	13.81567
2227.767	-5.14141	10.10210	-5.18769	12.14869
2231.763	-5.26644	10.12917	-5.23888	11.81763
2235.767	-5.18779	10.35360	-5.25242	13.69456
2239.766	-4.98618	10.42769	-5.12816	12.55393
2243.748	-5.14781	12.38582	-5.06043	12.63999
2247.759	-4.99305	12.63713	-5.06870	13.53910
2251.765	-5.22591	11.11534	NaN	NaN
2255.765	-5.30567	11.67563	-5.09475	13.69983
2259.763	-5.51189	12.04613	-5.19608	14.02582
2263.763	-5.63692	11.62750	-4.98093	14.01844
2267.763	-5.44070	11.43999	-5.00154	14.56265
2271.762	-5.63139	11.43269	-5.17255	14.68588
2275.764	-5.70035	11.58379	-4.89543	14.76847
2279.765	-5.37488	11.69307	NaN	NaN
2283.765	-5.41659	11.74717	-5.44535	14.46879
2287.760	-5.50326	11.45653	-5.04829	14.44324
2291.765	-5.59806	10.98551	-4.95233	14.55410
2295.760	-5.61687	11.84350	-4.79041	13.71351
2299.767	-5.65147	11.87647	-4.72551	14.60620
2303.767	-5.64326	11.09893	-4.62389	13.85934
2307.763	-5.88699	11.40842	-4.68047	14.68966
2311.764	-5.57176	11.27305	-4.67944	14.37436
2315.769	-5.57333	11.34277	-4.55107	14.24348
2319.764	-5.13131	11.64038	-3.48385	13.29148
2323.765	-2.93903	12.33429	-3.48610	14.39817
2327.744	-1.68692	12.07583	0.02924	14.39699
2331.776	0.76459	11.43710	-0.38638	14.45529
2335.762	1.35209	11.67269	NaN	NaN
2339.762	2.80573	11.11346	4.22584	14.62535
2343.765	2.83801	11.17700	NaN	NaN
2347.665	2.42649	11.35315	NaN	NaN
2351.763	2.04413	11.53358	NaN	NaN
2355.764	2.48676	11.42269	3.13724	14.52233
2359.763	2.45032	11.48927	4.43409	14.69420
2363.665	2.55651	11.55429	4.23836	14.41079
2367.754	2.57461	11.66605	4.59149	14.24959
2371.754	2.79206	11.20972	5.69856	11.87382
2375.764	2.95683	11.21848	5.55194	11.59222
2379.766	2.91302	10.97953	5.76207	11.68572
2383.767	3.13167	8.60045	5.49896	12.31092
2387.763	2.91866	8.42298	5.92925	11.79527
2391.767	3.27606	9.66114	5.62761	11.73255
2395.764	3.09985	8.88240	5.70723	11.55995
2399.767	3.13801	9.16780	5.64299	11.69676
2403.767	3.10658	9.45158	5.28729	12.03240
2407.763	3.44812	9.68964	5.44842	12.62064
2411.767	3.40333	9.55583	5.48523	11.97952
2415.766	3.45039	9.78571	5.07500	12.66533
2419.766	3.48071	9.61213	4.53305	13.17398
2423.730	3.42270	9.74735	4.13828	14.06965
2427.774	3.49834	9.48858	4.29352	14.70242
2431.766	3.43731	9.72070	3.96898	14.60696
2435.727	3.34576	9.79983	4.25991	14.40597
2439.769	3.32676	9.97897	3.81555	14.73499
2443.663	3.39174	9.92579	3.76967	14.66167
2447.770	3.38177	10.01739	NaN	NaN
2451.748	3.37920	10.04104	3.99963	14.86532
2455.764	3.22218	10.09524	NaN	NaN
2459.770	3.28424	10.11507	NaN	NaN
2463.767	3.11700	10.15987	3.82509	14.77924
2467.730	2.86084	10.18158	NaN	NaN
2471.641	0.18844	10.05665	0.54627	14.76552
2475.666	-2.18535	10.17064	-1.63995	14.59913
2479.640	-2.43555	9.67913	-2.76312	12.16410
2483.641	-4.91176	10.04739	-5.14970	12.06089
2487.605	-6.60306	10.46998	-6.52422	11.89375
2491.640	-8.53600	10.21062	-7.52688	11.50442
2495.606	-9.17844	10.35634	-8.98080	11.55512
2499.616	-9.46285	10.12458	-10.42468	11.80973
2503.642	-12.29919	9.65352	-11.35403	11.54955
2507.632	-12.50243	9.38862	-11.56688	10.56768
2511.641	-12.35218	9.75983	-12.00208	10.65582
2515.644	-11.64356	9.32086	-11.50503	10.07840
2519.643	-11.18547	9.45853	-12.00618	10.61385
2523.642	-11.90495	9.26903	-11.99464	10.83995
2527.641	-11.81137	9.19635	-11.73866	8.75954
2531.649	-11.80523	9.22648	-11.84259	8.76055
2535.645	-11.94004	9.37190	-11.51483	10.26399
2539.661	-12.22075	9.19724	-11.95094	10.74574
2543.600	-12.85272	9.03488	-11.94398	10.66705
2547.605	-12.44896	8.99832	-11.77489	11.59235
2551.641	-11.88188	8.99149	-11.84311	11.75489
2555.666	-11.99863	9.00949	-11.89124	11.27484
2559.643	-11.83393	9.00329	-11.98883	9.38723
2563.643	-11.93360	9.00382	-12.31097	10.57654
2567.644	-12.00602	8.96771	-11.56429	9.31362
2571.636	-11.98028	9.19585	-11.84154	9.56876
2575.643	-12.22542	8.96437	-11.96087	9.54573
2579.647	-12.14786	8.93855	-10.38356	7.78097
2583.610	-11.92667	9.08673	-11.34246	8.62924
2587.639	-11.97885	9.06268	-11.61975	9.13719
2591.642	-11.86590	9.02088	-11.15936	9.40345
2595.641	-11.67896	9.08444	-10.97822	9.26580
2599.643	-11.73719	8.93698	-11.56376	9.20360
2603.640	-12.17056	8.89830	-10.77203	9.48261
2607.607	-12.02769	8.73721	-11.14985	9.85366
2611.606	-11.76652	8.87626	-11.72938	10.19301
2615.643	-11.66810	8.63695	-11.23712	10.76359
2619.644	-11.50384	8.78191	-11.52807	11.09903
2623.624	-11.72427	8.82942	-11.15422	11.08895
2627.644	-11.91707	8.71803	-11.26502	11.22511
2631.644	-11.46494	8.84178	-11.45364	12.57585
2635.639	-11.66525	8.81873	-11.85690	12.31661
2639.639	-11.76309	8.71540	-11.39110	11.29902
2643.641	-11.67408	8.80203	-11.59946	11.14314
2647.643	-11.80987	8.64548	-11.45195	11.20836
2651.635	-12.05568	8.85081	-11.77565	11.23470
2655.643	-11.87025	8.69525	-11.46330	9.17439
2659.646	-11.87040	8.62687	-11.12338	11.19234
2663.639	-11.65032	8.94131	-11.20665	10.91963
2667.639	-12.25583	8.93004	-11.50694	11.55608
2671.606	-12.42955	9.12618	-11.62613	12.68960
2675.644	NaN	NaN	NaN	NaN
2679.643	-12.96896	13.99641	NaN	NaN
2683.605	NaN	NaN	NaN	NaN
2687.644	NaN	NaN	NaN	NaN
2691.607	NaN	NaN	NaN	NaN
2699.643	NaN	NaN	NaN	NaN
2703.640	NaN	NaN	NaN	NaN
2707.608	NaN	NaN	NaN	NaN
2711.643	NaN	NaN	NaN	NaN
2715.640	NaN	NaN	NaN	NaN
2719.641	NaN	NaN	NaN	NaN
2723.641	NaN	NaN	NaN	NaN
2727.647	NaN	NaN	NaN	NaN
2731.643	NaN	NaN	NaN	NaN
2735.645	NaN	NaN	NaN	NaN
2739.641	NaN	NaN	NaN	NaN
2743.647	NaN	NaN	NaN	NaN
2747.633	NaN	NaN	NaN	NaN
2751.637	NaN	NaN	NaN	NaN
2755.647	NaN	NaN	NaN	NaN
2759.646	NaN	NaN	NaN	NaN
2763.648	NaN	NaN	NaN	NaN
2767.647	NaN	NaN	NaN	NaN
2771.641	NaN	NaN	NaN	NaN
2775.609	NaN	NaN	NaN	NaN
2779.673	NaN	NaN	NaN	NaN
2783.647	NaN	NaN	NaN	NaN
2787.648	NaN	NaN	NaN	NaN
2791.618	NaN	NaN	NaN	NaN
2795.646	NaN	NaN	NaN	NaN
2799.609	-3.27804	2.14642	NaN	NaN
2803.647	-5.27543	-2.58648	NaN	NaN
2807.646	-17.72371	2.23872	NaN	NaN
2811.670	-7.35681	8.17541	NaN	NaN
2815.646	-14.20973	-2.88632	NaN	NaN
2819.645	0.85451	-0.60305	NaN	NaN
2823.646	0.57791	-0.98000	NaN	NaN
2827.647	-5.45068	9.10365	NaN	NaN
2831.630	-12.84163	8.89159	-12.97104	11.04837
2835.647	-12.89013	8.14042	-11.99835	10.68662
2839.646	-14.48118	7.95139	-9.91710	8.92965
2843.639	-5.62040	4.18214	-9.85968	8.77418
2847.649	-5.95042	4.42603	-10.12308	8.67600
2851.646	-5.95064	4.96499	-9.91946	8.46305
2855.645	-6.27783	4.33697	-9.51717	8.51863
2859.641	-11.51668	7.36672	-9.99845	8.51463
2863.647	-11.69831	7.52241	-9.92295	8.57675
2867.650	-11.34320	7.22513	-9.89219	8.81014
2871.643	-11.65170	7.31537	-9.86117	9.79633
2875.673	-4.98046	0.36375	-9.71247	8.80594
2879.645	-5.83879	0.22040	-10.04490	8.93010
2883.650	-5.82547	0.10291	-9.88174	9.47845
2887.647	-11.65858	7.15853	-10.06475	9.82032
2891.645	-11.38833	7.19110	-9.76835	7.21000
2895.650	-6.98274	0.15941	-9.80279	6.65744
2899.649	-7.73258	-4.66081	-10.03072	5.60396
2903.646	-11.66829	7.40960	-9.84089	6.45655
2907.639	-11.67006	7.62944	-9.97652	7.00207
2911.650	-9.91645	6.70344	-10.10446	7.87374
2915.649	-10.14999	0.30306	-9.41342	7.26169
2919.647	-10.74937	6.19074	-9.60027	7.38322
2923.642	-11.47553	6.06727	-9.97356	8.67759
2927.646	-11.59313	5.57713	-10.08221	9.45654
2931.651	-12.15571	7.69865	-9.96460	9.16499
2935.651	-11.68922	7.93497	-9.83831	8.88576
2939.640	-11.41442	5.86695	-10.13744	8.16791
2943.647	-11.53429	5.75811	-10.04155	7.66678
2947.652	-11.58296	5.84227	-9.94448	8.98724
2951.651	-11.92030	5.76432	-10.00829	9.27730
2955.650	-11.71049	6.36195	-11.34728	7.77966
2959.646	-11.47064	5.70125	-10.32147	8.88120
2963.648	-11.65280	5.73723	-10.50633	8.46741
2967.652	-11.79025	5.63571	-13.90630	8.06178
2971.648	-11.47994	5.83377	-10.34124	8.30845
2975.649	-11.45212	5.80655	-10.07896	7.69685
2979.651	-11.50777	5.77036	-10.24081	8.35861
2983.652	-11.66789	5.95239	-10.16382	8.04055
2987.610	-11.81905	6.06592	-9.92731	8.44199
2991.657	-12.00597	6.18728	-10.00846	9.51753
2995.664	-11.58244	6.24586	-10.07269	8.87559
2999.616	-11.44347	6.81413	-10.06446	8.43149
3003.650	-11.62113	6.25357	-10.33497	8.00620
3007.651	-11.49729	7.19716	-10.04713	8.20435
3011.649	-11.78381	6.99265	-10.11130	8.16308
3015.648	-11.57810	7.34247	-10.01392	8.30186
3019.648	-11.71313	7.16513	-10.20103	8.22551
3023.650	-11.79434	7.65355	-10.13119	7.58183
3027.650	-11.50827	7.68958	-10.06410	7.44844
3031.656	-11.56231	7.50202	-9.95384	8.28768
3035.651	-11.32376	7.89681	-9.57621	8.05991
3039.629	-9.93227	7.80705	-9.16799	8.70628
3043.614	-9.53933	7.60805	-9.01271	9.45594
3047.653	-9.15011	7.81111	-8.41507	8.98416
3051.633	-9.08934	6.83828	-7.06823	8.87865
3055.651	-9.01394	7.71661	-7.90041	10.88123
3059.652	-9.25064	8.07774	-8.10562	10.78012
3063.652	-9.30394	7.96138	-7.89888	10.44601
3067.645	-9.48343	7.98281	-8.00284	10.82935
3071.650	-9.58024	7.17743	-8.29030	10.96270
3075.653	-9.65536	7.19545	-8.23581	11.14800
3079.646	-9.29111	7.04200	-8.53782	11.24110
3083.648	-9.13453	7.90077	-8.35867	12.33804
3087.653	-9.16209	7.82754	-7.78355	11.00326
3091.653	-9.11615	8.01709	-7.98388	10.72321
3095.652	-9.33567	8.25688	-8.24619	10.21918
3099.664	-9.13255	8.73708	-8.12094	9.58068
3103.651	-9.62815	8.40856	-8.19419	10.13171
3107.650	-9.58159	9.21529	-8.22479	9.49344
3111.614	-9.73135	9.59839	-8.10104	9.42263
3115.617	-9.38953	9.97130	-7.90126	9.24896
3119.650	-9.60183	9.82372	-7.78165	9.85303
3123.622	-9.83522	8.37323	-7.98087	10.22250
3127.652	-9.37675	8.06854	-7.94844	10.75248
3131.650	-9.44168	7.68137	-7.94482	11.41473
3135.652	-9.66926	7.67384	-7.84277	11.69877
3139.650	-9.43639	7.70094	-7.83476	11.06332
3143.652	-9.05509	7.77573	-7.82998	10.61727
3147.647	-9.42404	7.70299	-8.15224	10.33526
3151.652	-9.36433	7.78112	-8.04446	11.65064
3155.650	-9.66021	7.78431	-7.81549	10.75605
3159.655	-9.78033	7.95785	-7.89985	10.61935
3163.641	-9.90347	7.40076	-8.47410	11.72015
3167.642	-9.82785	7.48330	-8.27579	12.76154
3171.652	-9.17517	7.60501	-8.04368	11.82817
3175.616	-9.37148	6.49255	-8.35668	11.36502
3179.551	-9.49603	6.29247	-8.40924	11.72817
3183.652	-9.51317	7.52602	-15.31708	13.98339
3187.651	-8.90381	6.41886	-15.42230	14.42901
3191.654	-8.91248	7.30724	NaN	NaN
3195.652	-9.03919	6.93421	NaN	NaN
3199.657	-8.68895	7.11660	-8.27681	11.06776
3203.655	-9.58721	6.80399	-8.59893	11.61372
3207.620	-9.40436	7.56562	-8.28758	10.08413
3211.643	-9.36868	7.08061	-8.24670	8.14578
3215.652	-9.54542	7.42718	-8.19438	7.81937
3219.651	-9.86931	7.18416	-8.00377	8.51749
3223.652	-9.70859	7.48037	-8.00289	8.99526
3227.553	-9.91625	7.41802	-7.81259	8.25921
3231.615	-9.57155	7.51584	-7.79110	9.36931
3235.655	-9.65117	7.61948	-7.80302	9.11153
3239.654	-9.98776	7.76483	-7.79140	9.67889
3243.555	-9.82159	8.03949	-7.68157	9.94391
3247.616	-7.91626	7.91411	-7.22693	8.52968
3251.655	-6.85865	8.05177	-6.06468	9.15945
3255.653	-6.07516	8.10850	-5.70640	9.37046
3259.551	-4.08458	8.27922	-2.82219	8.55495
3263.652	-3.92499	8.13617	-2.13373	9.09021
3267.653	-2.54700	8.15624	-0.79156	7.87972
3271.652	-2.28009	8.23026	-0.59995	10.64792
3275.553	-1.83640	8.18383	1.89511	8.60935
3279.652	-1.22965	7.90012	1.29963	7.63378
3283.653	-0.99040	8.17555	1.53597	7.22658
3287.648	-0.78895	7.89504	1.14821	7.02613
3291.554	-0.69920	7.93176	1.00553	8.94441
3295.654	-0.79980	7.97472	1.46807	6.67857
3299.656	-0.88704	7.92377	1.28735	6.69939
3303.657	-1.24920	7.58067	1.67992	6.97540
3307.529	-1.18041	7.64317	1.84433	6.73160
3311.665	-1.01035	7.45430	1.86769	6.85092
3315.617	-1.03674	7.80865	2.03769	6.88174
3319.652	-1.08626	7.55945	2.47400	8.56278
3323.552	-1.07123	7.96353	2.50704	7.53107
3327.653	-1.13310	8.32259	1.63070	7.30383
3331.628	-1.11603	8.53465	1.51975	6.80233
3335.658	-1.17741	8.67563	1.39941	7.68142
3339.551	-1.15317	8.96762	0.96943	7.80864
3343.656	-1.13821	8.96001	1.16979	8.25502
3347.654	-1.22886	9.06068	0.54667	8.48864
3351.655	-1.43456	9.30026	0.58878	8.72964
3355.659	-1.34110	9.33195	0.51297	9.14753
3359.619	-1.37466	9.27175	0.69526	8.97872
3363.656	-1.40418	9.42297	0.39005	8.90036
3367.660	-1.22834	9.45227	0.21117	9.14257
3371.554	-1.29663	9.60166	0.71233	8.66961
3375.655	-1.23092	9.65599	0.51550	8.79257
3379.656	-1.14516	9.68627	0.70121	8.76414
3383.619	-1.49071	9.91374	0.96368	8.65498
3387.655	-1.41717	9.90731	1.17364	8.76273
3391.652	-1.40718	9.85105	1.23779	8.74690
3395.657	-1.22995	9.89681	1.26101	8.79007
3399.652	-1.37094	9.90304	1.02300	7.78615
3403.558	-1.43183	9.89908	1.38416	8.24242
3407.658	-1.27175	9.86678	1.39175	8.13959
3411.658	-1.26175	9.84065	1.48019	7.34132
3415.654	-1.29876	9.76967	1.42838	7.56765
3419.541	-1.28365	9.80350	1.88992	7.78697
3423.656	-1.39383	9.74886	1.60880	7.68057
3427.656	-1.39559	9.76304	1.64146	7.37929
3431.654	-1.34013	9.67386	1.74851	7.42874
3435.661	-1.69765	9.66805	1.28400	7.48669
3439.659	-1.56719	9.63962	1.46100	7.41707
3443.657	-1.50817	9.53518	0.78481	8.26579
3447.655	-1.48166	9.47112	0.41934	10.10148
3451.525	-1.43838	9.67325	0.94740	10.10150
3455.635	-1.48463	9.49112	1.42714	9.45307
3459.658	-1.46445	9.70315	1.74717	9.19038
3463.655	-1.62041	9.71418	1.70923	10.45558
3467.553	-1.65741	9.91996	-0.84967	9.04818
3471.657	-1.47303	9.67842	0.95112	10.11580
3475.658	-1.53728	10.00190	-0.68903	9.86608
3479.655	-1.55038	10.00818	-0.37829	9.06072
3483.557	-1.56796	10.05453	-0.22405	8.88631
3487.621	-1.63410	10.11484	-0.36968	9.26980
3491.620	-1.77677	10.12388	0.62171	11.26575
3495.653	-1.74784	10.30768	1.02362	10.76075
3499.555	-2.09145	14.75715	1.11412	10.82174
3503.535	NaN	NaN	NaN	NaN
3507.621	NaN	NaN	NaN	NaN
3511.532	NaN	NaN	NaN	NaN
3515.531	NaN	NaN	NaN	NaN
3519.531	NaN	NaN	NaN	NaN
3523.532	NaN	NaN	NaN	NaN
3527.529	NaN	NaN	NaN	NaN
3531.532	NaN	NaN	NaN	NaN
3535.535	NaN	NaN	NaN	NaN
3539.534	NaN	NaN	NaN	NaN
3543.521	NaN	NaN	NaN	NaN
3547.494	NaN	NaN	NaN	NaN
3551.530	NaN	NaN	NaN	NaN
3555.535	NaN	NaN	NaN	NaN
3559.531	NaN	NaN	NaN	NaN
3563.531	NaN	NaN	NaN	NaN
3567.530	NaN	NaN	NaN	NaN
3571.533	NaN	NaN	NaN	NaN
3575.531	NaN	NaN	NaN	NaN
3579.535	NaN	NaN	NaN	NaN
3583.532	NaN	NaN	NaN	NaN
3587.495	NaN	NaN	NaN	NaN
3591.496	NaN	NaN	NaN	NaN
3595.532	NaN	NaN	NaN	NaN
3599.560	NaN	NaN	NaN	NaN
3603.533	NaN	NaN	NaN	NaN
3607.500	NaN	NaN	NaN	NaN
3611.528	NaN	NaN	NaN	NaN
3615.494	NaN	NaN	NaN	NaN
3619.538	NaN	NaN	NaN	NaN
3623.534	NaN	NaN	NaN	NaN
3627.514	NaN	NaN	NaN	NaN
3631.503	NaN	NaN	NaN	NaN
3635.538	NaN	NaN	-9.95064	13.35152
3639.530	NaN	NaN	NaN	NaN
3643.498	NaN	NaN	NaN	NaN
3647.530	NaN	NaN	-0.79506	7.63734
3651.532	NaN	NaN	-1.42414	8.15494
3655.508	NaN	NaN	-1.18413	10.03217
3659.497	NaN	NaN	-1.54852	8.32416
3663.535	NaN	NaN	-1.19929	8.41155
3667.533	-1.79153	6.07926	-1.50244	9.35786
3671.524	-8.90696	6.29846	-1.74489	10.25960
3675.534	-7.79929	10.14511	-1.62629	9.42876
3679.533	-4.51862	11.08236	-5.60411	6.14075
3683.534	-6.09923	11.47242	-1.86437	10.92243
3687.534	-5.84431	8.01808	-3.05259	8.62522
3691.536	-5.58454	8.58211	-3.51757	9.78664
3695.533	-5.73028	8.64386	-2.89544	8.86138
3699.529	-6.08509	8.86305	-1.81317	5.91102
3703.536	-6.09047	8.87684	-2.13289	6.29286
3707.537	-5.96171	7.85082	-1.86806	6.17926
3711.510	-5.97921	8.06100	-1.74955	6.99171
3715.531	-5.97227	7.89391	-1.23250	5.92828
3719.537	-6.04846	7.84136	-1.50405	7.12386
3723.535	-5.96279	8.03093	-1.70080	6.58676
3727.535	-5.94644	7.65246	-1.57285	6.40189
3731.557	-5.88871	7.54679	-0.99196	8.02708
3735.540	-5.85114	7.59121	-1.64945	8.52222
3739.538	-5.84205	7.11385	-1.41303	7.28669
3743.538	-5.76455	7.32783	-1.80712	7.55002
3747.538	-5.69674	7.47624	-7.15503	6.93364
3751.520	-3.49159	7.49492	-2.63061	10.97431
3755.538	-5.72657	9.96818	-2.41881	10.56435
3759.536	-5.73053	9.75703	-2.85420	9.76243
3763.562	-5.48516	9.63981	-2.45981	10.42446
3767.528	-5.54725	10.24492	-3.51565	10.44544
3771.537	-5.54034	9.76507	-3.19271	9.04476
3775.548	-6.38033	9.72809	-3.25431	8.74064
3779.534	-6.07535	9.55969	-3.25609	9.65462
3783.537	-6.16383	9.21208	-3.37403	8.70499
3787.537	-5.95641	9.64828	-3.35689	8.58687
3791.500	-6.17045	9.07106	-3.16602	8.78521
3795.534	-6.42167	9.86526	-3.09193	8.27201
3799.499	-6.38050	9.45303	-3.06652	8.49539
3803.534	-6.45047	9.13685	-3.08839	8.31893
3807.536	-6.38812	9.23397	-3.22438	8.42898
3811.560	-6.44995	9.18314	-3.26366	8.32159
3815.536	-6.51187	9.05170	-3.26295	8.30098
3819.536	-6.49087	9.11014	-3.17089	8.25436
3823.536	-6.47948	9.19469	-3.23650	8.19080
3827.531	-6.48845	8.92158	-3.22826	8.14307
3831.540	-6.51307	9.35054	-3.37237	8.43566
3835.522	-6.49957	9.16892	-3.41189	8.17507
3839.536	-6.53269	9.15042	-3.52541	8.20776
3843.530	-6.55369	9.69750	-3.52200	8.15494
3847.537	-6.59030	9.21005	-3.59617	8.37698
3851.537	-6.61496	9.45166	-3.55859	8.59933
3855.537	-6.60781	9.27197	-3.52630	8.52078
3859.531	-6.54908	9.20282	-3.62961	8.26310
3863.542	-6.58212	9.46484	-3.60472	8.09707
3867.537	-6.56395	9.28619	-3.49923	8.20753
3871.503	-6.56098	9.25179	-3.51384	8.01497
3875.534	-6.57272	9.19207	-3.59075	8.16782
3879.535	-6.52914	9.19057	-3.64410	7.81055
3883.535	-6.33478	9.24379	-3.61179	7.97957
3887.537	-6.38807	9.26479	-3.31202	8.58505
3891.532	-6.32907	8.96185	-3.20337	9.26745
3895.537	-6.21814	8.94054	-3.57874	10.79195
3899.537	-6.06617	8.76530	-3.78071	10.96730
3903.539	-6.11991	8.81238	-3.64662	9.32009
3907.563	-5.86553	8.65658	-3.55681	10.15261
3911.540	-6.04956	8.95557	-3.78165	10.26836
3915.538	-5.99797	9.02779	-3.82479	10.20620
3919.540	-5.85932	8.71760	-3.90820	7.86847
3923.536	-5.84922	8.90194	-3.90242	10.08864
3927.502	-5.85843	8.64261	-3.85301	10.32535
3931.538	-5.69689	8.97116	-3.85232	10.43937
3935.538	-5.93426	9.25710	-3.83094	10.47415
3939.542	-6.07167	9.01764	-3.75978	10.48878
3943.538	-5.98012	9.08005	-3.77115	10.42546
3947.541	-6.09677	9.11843	-3.59916	10.52072
3951.540	-6.09967	9.23762	-3.70455	10.40758
3955.532	-6.01731	9.29935	-3.51597	10.63913
3959.523	-5.99512	9.50596	-3.57234	10.92227
3963.535	-6.00651	9.39051	-3.45227	10.62242
3967.540	-5.91403	9.43178	-3.57046	10.62738
3971.538	-5.98339	9.32117	-3.43548	10.54648
3975.539	-5.98474	9.46301	-3.41065	10.35766
3979.540	-5.96645	9.42655	-3.37390	10.07077
3983.541	-5.95214	9.47138	-3.30092	10.16662
3987.533	-5.90632	9.26892	-3.29053	9.69935
3991.502	-5.90561	9.43240	-3.27942	9.58372
3995.543	-5.92024	9.40014	-3.31403	9.50930
3999.541	-6.00295	9.29625	-3.33221	9.27902
4003.539	-5.99097	8.59256	-3.30549	9.05194
4007.541	-6.01670	8.98911	-3.31890	8.92781
4011.541	-6.05349	8.86953	-3.33119	8.59874
4015.538	-6.13525	8.63288	-3.36446	8.66874
4019.539	-6.15936	8.65732	-3.60007	8.54769
4023.539	-6.12656	8.77326	-3.64800	8.85018
4027.541	-6.10404	8.36305	-3.44436	9.24530
4031.539	-6.15007	8.69315	-3.45121	8.88211
4035.543	-6.20102	8.66377	-3.36841	9.01740
4039.545	-6.22645	8.69399	-3.45564	9.10846
4043.519	-6.18365	8.65219	-3.54593	9.59027
4047.514	-6.14594	8.69491	-3.61233	9.72890
4051.506	-6.07464	8.51550	-3.74644	9.65253
4055.540	-6.12681	8.69695	-3.73774	9.80588
4059.540	-5.86104	8.60475	-3.71629	9.77851
4063.545	-5.99377	8.57128	-3.58306	10.04091
4067.545	-6.03670	8.56467	-3.52450	10.01173
4071.544	-5.98363	8.66285	-3.52912	9.91085
4075.545	-5.94514	8.76161	-3.62479	9.96903
4079.544	-5.91928	8.89616	-3.56682	9.87803
4083.532	-5.86263	8.60485	-3.66268	9.84225
4087.542	-5.71350	8.84027	-3.63609	9.74727
4091.538	-5.65140	8.88848	-3.62348	9.54781
4095.539	-5.69816	8.98576	-3.59461	9.46818
4099.533	-5.65292	8.73712	-3.67712	8.87379
4103.540	-5.97560	8.92124	-3.70210	8.78113
4107.543	-5.79897	9.10890	-3.67729	8.62969
4111.543	-6.16900	9.16203	-3.87025	8.57928
4115.509	-5.86035	9.68272	-3.83104	8.39808
4119.504	-5.67344	9.12675	-5.50392	8.30006
4123.539	-6.67985	9.21307	-4.72502	7.58007
4127.509	-7.65168	9.07401	-6.74902	8.68552
4131.538	-8.43661	8.94091	-9.01123	8.05774
4135.543	-9.52934	8.87668	-9.96179	9.60274
4139.542	-10.61725	7.89741	-10.69589	8.47543
4143.544	-10.78958	7.68621	-11.25037	7.92236
4147.545	-10.94588	7.23689	-10.79033	7.84107
4151.541	-11.03069	8.55606	-11.52719	8.44259
4155.544	-10.99891	8.40007	-11.31020	7.97224
4159.546	-11.16404	8.09712	-11.23745	7.51005
4163.549	-11.21732	8.37369	-11.43791	8.46805
4167.526	-11.25846	8.19601	-11.41101	8.40523
4171.500	-11.30283	8.80334	-11.25605	9.30396
4175.506	-11.40324	9.09248	-11.18193	9.00738
4179.542	-11.36963	8.77447	-11.27230	9.29615
4183.544	-11.26316	9.12113	-11.10484	8.86969
4187.542	-11.24297	8.75741	-11.16019	9.17736
4191.542	-11.34571	8.89112	-11.19263	9.47709
4195.442	-11.34160	9.12356	-11.18477	9.12342
4199.505	-11.38187	8.94676	-11.08696	9.54676
4203.543	-11.27159	9.00612	-11.11490	9.60767
4207.542	-11.32908	8.87626	-10.98478	9.55973
4211.443	-11.19542	9.09726	-10.95698	9.53432
4215.542	-11.08935	9.06614	-10.87642	9.63544
4219.543	-11.00592	8.79859	-10.93136	10.02510
4223.545	-10.95622	8.79724	-11.03779	10.69406
4227.535	-10.81269	8.65364	-11.17259	9.58862
4231.542	-10.85574	8.63765	-11.07957	9.32161
4235.546	-11.06858	8.44347	-11.52162	10.28009
4239.544	-11.17398	8.21481	-11.34654	10.05945
4243.538	-11.16072	7.79361	-11.57543	9.64454
4247.546	-11.42952	7.76868	-11.55428	9.70797
4251.524	-11.38645	7.33775	-11.66432	9.43258
4255.545	-11.51366	7.25198	-11.55702	9.42819
4259.440	-11.56617	6.97358	-11.58360	8.57918
4263.542	-11.53648	7.54152	-11.52240	8.21475
4267.506	-11.77063	7.57344	-11.57041	8.45710
4271.543	-11.72517	7.83531	-11.34485	7.83810
4275.443	-11.57136	9.05860	-11.34869	7.14839
4279.543	-11.59287	7.99257	-11.08784	6.23857
4283.546	-11.44470	8.42748	-11.31183	7.80412
4287.547	-11.51549	8.23379	-11.25727	7.98239
4291.447	-11.43789	8.43924	-11.19872	7.55381
4295.533	-11.44077	8.05938	-11.69921	8.03899
4299.545	-11.48027	8.08238	-11.79841	8.45124
4303.519	-11.39003	8.06782	-11.67508	8.31976
4307.419	-11.34938	8.02090	-11.11210	8.44131
4311.842	-11.43767	7.74465	-10.92507	8.73614
4315.546	-11.42415	7.64821	-11.04907	8.78034
4319.545	-11.38065	7.49945	-11.08966	8.83586
4323.550	-11.41330	7.49637	-10.89212	8.78979
4327.546	-11.42000	7.10359	-10.88489	10.77555
4331.544	-11.41693	7.76608	-10.94533	10.17692
4335.512	-11.44318	7.72948	-10.95368	10.59874
4339.450	-11.43872	7.68459	-10.87046	10.16194
4343.546	-11.43550	7.70874	-11.58320	10.59629
4347.543	-11.42496	7.51996	-10.92040	10.42762
4351.544	-11.40591	7.74187	-11.26178	10.63412
4355.551	-11.37963	7.55885	-11.12988	10.71333
4359.543	-11.37166	7.64420	-11.43729	10.79508
4363.546	-11.39222	7.73559	-11.02662	10.43547
4367.544	-10.97047	7.81545	-11.09418	10.59388
4371.442	-10.96322	7.72654	-10.94574	10.05722
4375.531	-8.43727	8.02872	-10.44713	10.17813
4379.545	-6.58423	8.00480	-8.77853	10.53481
4383.544	-6.05744	8.07357	-6.20967	10.01284
4387.549	-5.77944	8.07353	-4.72499	10.05384
4391.543	-5.20093	9.88933	-5.55278	10.88038
4395.546	-3.88152	8.19943	-4.29779	9.51188
4399.547	-3.95646	8.24715	-4.07160	10.38204
4403.513	-3.85276	8.23584	-4.04786	10.37440
4407.584	-3.94987	8.34892	-4.07799	10.46873
4411.545	-3.88008	8.28215	-3.92717	10.24413
4415.543	-3.84389	8.30821	-3.86753	10.25790
4419.548	-3.74337	8.22346	-3.72479	9.93223
4423.546	-3.98714	8.27709	-3.53159	10.05827
4427.546	-3.91136	8.09339	-2.78250	9.35610
4431.545	-3.84836	8.22923	-3.40482	10.30417
4435.446	-3.83519	8.21330	-3.27076	10.35714
4439.552	-3.84340	8.21424	-3.40695	10.11513
4443.550	-3.82099	8.28342	-3.39206	10.33777
4447.546	-3.73060	8.61764	-3.29795	10.46814
4451.547	-4.19264	8.41557	-2.89549	10.57967
4455.550	-3.77683	8.93599	-3.10218	10.58227
4459.527	-3.85839	9.39651	-3.09510	10.47919
4463.547	-3.48402	9.32862	-2.82162	10.81372
4467.551	-3.78140	9.70957	-3.05372	11.13270
4471.545	-3.58865	9.63552	-3.18648	10.89427
4475.546	-3.86637	9.72491	-3.19044	10.93982
4479.548	-4.00971	9.83877	-3.21310	11.06323
4483.552	-4.05545	9.74262	-3.05939	11.16346
4487.549	-4.03196	9.81511	-2.87720	11.21594
4491.511	-4.10503	10.02845	-3.03046	11.35895
4495.513	-3.97269	9.97329	-2.86997	11.23401
4499.536	-4.21333	9.99319	-2.93428	11.28106
4503.539	-4.31832	10.09201	-3.00705	11.34003
4507.553	-4.24495	10.01862	-3.06696	11.29996
4511.547	-4.28688	10.48390	-3.09698	10.75605
4515.446	-4.31274	10.55093	-2.92933	11.45585
4519.549	-4.46443	10.33235	-2.85576	11.47247
4523.547	-4.34689	10.17920	-3.25822	11.50438
4527.548	-4.33781	10.06913	-3.09765	11.52127
4531.415	-4.58757	9.93586	-3.36928	11.68734
4535.422	-4.44381	9.62670	-3.38830	11.91073
4539.424	-4.43458	8.66953	-3.30586	11.40590
4543.428	-4.11680	8.85955	-3.02348	10.54277
4547.447	-4.23670	8.55478	-3.28152	10.25281
4551.418	-3.96768	8.57407	-3.37428	11.05075
4555.422	-4.01719	9.27147	-3.31331	9.88949
4559.424	-4.03599	8.63407	-3.63905	9.98386
4563.552	-3.87104	8.78639	-3.50815	10.18576
4567.422	-4.12725	8.85711	-3.22930	9.70480
4571.425	-3.93208	8.46926	-3.33453	9.49695
4575.424	-3.84510	8.49248	-3.25325	9.33536
4579.390	-3.86200	8.45671	-2.92802	9.29825
4583.424	-3.75440	8.48526	-2.93324	9.74306
4587.420	-3.77184	8.48892	-3.05447	9.41513
4591.417	-3.95841	8.63086	-2.73637	9.35854
4595.452	-3.82598	8.61385	-2.70379	9.26278
4599.424	-3.78224	8.74548	-2.70092	9.67889
4603.423	-3.77585	8.97740	-2.65540	9.23646
4607.388	-3.55374	8.81151	-3.13900	9.16815
4611.427	-3.56304	9.14556	-2.85702	9.25864
4615.386	-3.61861	9.10213	-3.01133	9.39256
4619.420	-3.78884	8.86586	-3.00284	9.24641
4623.425	-3.56299	8.95886	-2.99378	9.24356
4627.423	-3.41268	8.89518	-2.76091	9.18658
4631.395	-3.14642	8.95671	-2.71466	9.24586
4635.425	-3.41973	9.03595	-3.04613	9.20285
4639.423	-3.67838	9.22687	-3.20723	9.21736
4643.446	-4.06577	9.29262	-3.02145	9.28454
4647.423	-3.66451	9.10269	-3.28897	10.13226
4651.423	-3.86361	9.56129	-3.13172	9.88809
4655.425	-3.77896	9.68536	-3.38709	9.70705
4659.447	-3.26436	9.52707	-3.73050	9.66762
4663.424	-3.61476	9.80540	-3.56536	9.40148
4667.428	-3.21414	9.81952	-3.56865	9.26817
4671.412	-3.43494	9.83415	-3.38731	9.17830
4675.424	-3.38172	9.81080	-3.46649	9.23121
4679.424	-3.28147	10.02383	-3.32256	9.08948
4683.426	-3.27321	9.89311	-3.78187	10.29525
4687.424	-3.44095	9.87493	-3.82810	9.15738
4691.450	-3.40850	9.68179	-4.06155	11.30079
4695.425	-3.45089	9.61853	-4.09843	11.21011
4699.425	-3.50264	9.39827	-3.61478	11.08535
4703.427	-3.49300	9.16420	-3.94036	11.85208
4707.418	-3.09740	8.46110	-2.76641	12.77847
4711.425	-2.16905	8.25641	-2.63549	11.41057
4715.424	0.15873	8.19350	-0.85853	10.94721
4719.430	0.27647	8.02305	-0.41643	11.25997
4723.447	0.17576	8.28625	-0.03648	11.27003
4727.427	0.57647	8.33475	1.13923	10.26499
4731.424	1.00137	8.37728	0.82312	10.00567
4735.428	0.21092	8.96962	1.53887	9.65225
4739.420	0.50557	8.92840	1.39708	10.10208
4743.390	0.45820	8.02684	0.74446	10.33206
4747.428	0.64727	8.47864	1.11953	9.96758
4751.428	0.72985	7.95986	0.92115	10.49165
4755.458	0.61129	8.07631	0.71727	10.13943
4759.427	0.87322	8.12092	1.00752	10.22318
4763.426	1.03382	8.13360	0.97311	10.11043
4767.425	1.17599	8.10789	1.08162	10.10755
4771.452	1.07942	7.90166	1.03605	10.17763
4775.428	1.11045	8.08472	0.91758	10.51806
4779.426	1.05357	8.03574	0.87627	10.38364
4783.429	0.96008	7.79793	0.91971	10.49613
4787.448	1.00578	7.49339	0.94395	10.43368
4791.427	1.08038	7.53519	0.92217	10.61822
4795.422	0.97807	7.60328	1.02863	10.46634
4799.428	1.04672	7.77075	1.20556	10.36025
4803.450	0.88384	7.55011	1.63993	10.34846
4807.428	0.81004	8.19455	1.12658	9.97710
4811.429	0.87654	7.73015	1.57280	9.00757
4815.428	0.95787	8.38908	1.78347	8.32939
4819.452	0.84962	8.48363	1.69500	8.17902
4823.429	0.81923	9.27603	1.98452	8.05275
4827.428	0.78928	9.95502	2.24956	7.89306
4831.426	0.81771	9.51800	1.82123	9.06167
4835.428	0.76856	9.52159	1.92391	9.58150
4839.400	0.85364	9.01165	1.63038	11.72584
4843.426	0.96683	9.16445	1.45896	11.40410
4847.427	0.69231	9.22815	2.04897	9.85406
4851.453	0.71037	9.03338	1.70978	9.44167
4855.426	0.55850	9.13438	1.99927	9.93524
4859.427	0.69816	9.12385	1.85053	9.57571
4863.391	0.80898	8.91058	2.07425	9.53176
4867.395	0.51602	8.76043	1.65188	9.33551
4871.427	0.58588	8.27671	1.66259	9.19833
4875.429	0.62603	7.95464	1.50006	9.01897
4879.431	0.73163	7.61289	1.75069	8.35192
4883.419	0.74203	7.58377	1.72225	8.20042
4887.426	0.70841	8.43738	1.77667	8.27766
4891.426	0.84942	8.02829	1.82165	8.14212
4895.426	0.70030	8.22180	1.77090	7.98022
4899.422	0.78166	8.03515	1.69267	7.92654
4903.429	0.82684	8.07435	1.32627	8.10183
4907.428	0.53897	8.32984	1.59207	8.39207
4911.430	0.62769	8.01188	1.55822	8.43312
4915.427	0.83801	8.09783	1.47000	7.44259
4919.429	0.66838	8.27468	1.22194	7.70089
4923.395	0.81503	8.23723	1.45195	6.77148
4927.430	0.69263	8.36001	1.21226	6.72609
4931.431	0.71084	8.34404	1.34328	8.65848
4935.426	0.66551	8.51697	1.36509	8.00168
4939.431	0.73784	8.46371	1.19170	8.78187
4943.433	0.63635	10.24329	1.29087	9.24791
4947.425	0.54307	8.74350	1.24377	9.31832
4951.428	0.50805	10.05029	1.23196	9.96492
4955.430	0.50721	10.41436	0.95929	11.83201
4959.430	0.55183	10.32088	0.47195	10.95907
4963.389	0.45587	9.65090	1.16046	11.20695
4967.431	0.51704	10.16366	1.23030	10.56863
4971.431	0.31382	10.25670	0.64610	9.68829
4975.429	0.21904	9.98273	-1.70036	9.78863
4979.423	-1.59576	9.85090	-2.28046	9.45712
4983.430	-2.61838	8.60929	-3.42717	9.28240
4987.431	-5.84077	9.03613	-4.73286	8.95343
4991.432	-8.00732	8.51222	-2.70681	8.77909
4995.455	-8.47422	8.57611	-4.69066	9.78539
4999.431	-8.72146	8.38083	-9.83843	12.96038
5003.427	-9.02960	6.78538	NaN	NaN
5007.431	-6.57348	3.57821	NaN	NaN
5011.450	-10.61066	9.27044	NaN	NaN
5015.430	-11.81648	9.61611	NaN	NaN
5019.434	-11.74430	9.96487	NaN	NaN
5023.430	NaN	NaN	NaN	NaN
5027.422	-12.88683	7.46997	NaN	NaN
5031.432	-12.17101	6.93324	NaN	NaN
5035.431	-12.16102	7.38695	NaN	NaN
5039.429	-11.25999	6.91718	NaN	NaN
5043.439	-11.65925	7.17222	NaN	NaN
5047.394	-10.60668	10.00443	-17.53033	14.24224
5051.431	-13.06084	8.19150	-19.99346	-12.07744
5055.432	-10.31268	10.08916	-19.99346	-12.07744
5059.428	-12.14850	8.91380	-19.99346	-12.07744
5063.432	-10.67013	7.32572	-13.48756	13.85654
5067.432	-12.18848	8.31803	-15.73046	14.34534
5071.431	-12.07184	8.26097	-13.90829	14.06479
5075.423	-11.96458	8.49004	-13.21959	13.05112
5079.433	-12.02302	8.08569	-13.58859	14.30245
5083.394	-12.42188	8.45919	-13.26135	12.54690
5087.434	-11.79518	9.36443	-13.60880	13.34087
5091.423	-11.93303	8.70168	-13.34801	12.93591
5095.427	-11.70970	8.78134	-12.65415	10.78234
5099.430	-11.82777	8.33433	-11.07694	9.65673
5103.430	-11.76473	8.57402	-12.83498	9.50405
5107.429	-11.90136	8.56507	-12.47250	7.80963
5111.433	-11.70706	8.87367	-12.64411	7.72345
5115.435	-11.79867	8.87692	-12.37593	8.56208
5119.432	-12.04018	8.34978	-12.28474	8.40296
5123.434	-13.27703	8.33667	-11.24332	7.60793
5127.436	-13.96517	7.89044	-12.15377	9.03007
5131.398	-11.60787	8.01587	-11.91990	9.40905
5135.433	-11.46173	7.91661	-12.09574	9.75550
5139.397	-11.68853	7.60503	-12.43932	9.69897
5143.437	-11.88323	7.47938	-12.35964	10.57884
5147.433	-11.86714	7.53455	-12.10915	10.61672
5151.395	-11.69355	7.19874	-12.15448	10.27749
5155.433	-11.87161	7.23965	-12.34633	9.76952
5159.434	-11.81341	7.13686	-12.11688	10.20586
5163.434	-11.96413	7.09474	-12.20124	10.59628
5167.437	-11.79665	7.17817	-12.44725	9.79942
5171.398	-11.66932	7.06988	-12.65942	9.73192
5175.431	-11.81006	6.84649	-12.08169	6.51530
5179.435	-11.87486	6.61133	-12.37345	8.97970
5183.432	-11.87494	6.13160	-12.53663	9.27892
5187.437	-11.61601	6.46263	-12.37465	8.11042
5191.436	-11.73754	6.33464	-12.69656	8.10774
5195.435	-11.81620	6.47643	-12.26458	9.51814
5199.431	-11.83167	6.45229	-12.44415	9.78909
5203.430	-11.85547	6.45457	-12.56136	9.34562
5207.396	-11.85794	6.38040	-12.18808	8.77158
5211.428	-11.88739	6.26386	-12.53204	8.50963
5215.425	-11.81843	6.35174	-12.10725	9.01792
5219.337	-11.88803	6.28922	-12.07687	8.75978
5223.436	-11.75807	6.40145	-11.83127	8.17802
5227.434	-11.83778	6.48973	-12.10964	8.22322
5231.433	-11.90490	6.58028	-11.72282	8.67866
5235.437	-11.91902	6.57905	-11.89404	9.52382
5239.433	-11.39671	8.46385	-11.70690	10.65049
5243.435	-12.32762	8.35073	-11.90257	11.40381
5247.433	-13.60446	10.75928	-12.01167	12.41735
5251.333	-12.89263	10.22972	NaN	NaN
5255.408	NaN	NaN	NaN	NaN
5259.434	NaN	NaN	NaN	NaN
5263.432	NaN	NaN	NaN	NaN
5267.437	NaN	NaN	NaN	NaN
5271.433	NaN	NaN	NaN	NaN
5275.432	NaN	NaN	NaN	NaN
5279.432	NaN	NaN	NaN	NaN
5283.434	NaN	NaN	NaN	NaN
5287.434	NaN	NaN	NaN	NaN
5291.398	NaN	NaN	NaN	NaN
5295.424	NaN	NaN	NaN	NaN
5299.432	NaN	NaN	NaN	NaN
5303.433	NaN	NaN	NaN	NaN
5307.397	NaN	NaN	NaN	NaN
5311.433	NaN	NaN	NaN	NaN
5315.434	NaN	NaN	NaN	NaN
5319.432	NaN	NaN	NaN	NaN
5323.395	NaN	NaN	NaN	NaN
5327.432	NaN	NaN	NaN	NaN
5331.433	NaN	NaN	NaN	NaN
5335.437	NaN	NaN	NaN	NaN
5339.398	NaN	NaN	NaN	NaN
5343.435	NaN	NaN	NaN	NaN
5347.334	NaN	NaN	NaN	NaN
5351.435	NaN	NaN	NaN	NaN
5355.413	NaN	NaN	NaN	NaN
5359.433	NaN	NaN	NaN	NaN
5363.403	NaN	NaN	NaN	NaN
5367.435	NaN	NaN	NaN	NaN
5371.435	NaN	NaN	NaN	NaN
5375.440	NaN	NaN	NaN	NaN
5379.415	-0.01181	2.14289	NaN	NaN
5383.336	-2.75509	2.82958	NaN	NaN
5387.437	-4.88483	7.93100	NaN	NaN
5391.436	-5.91607	7.93083	-8.88036	13.17867
5395.435	-1.84270	3.50992	-8.85570	13.42138
5399.439	-0.74285	-3.03414	-8.49692	13.13893
5403.434	-1.67672	-0.94840	-8.59932	13.95721
5407.400	-7.46145	6.49677	-8.70066	14.43490
5411.435	-7.79488	7.32068	-2.26391	12.96231
5415.437	-8.29057	7.45744	-8.98058	12.80200
5419.439	-8.16758	7.30529	-3.98491	12.43577
5423.428	-11.71603	10.59604	-4.16035	8.84349
5427.437	-8.46913	9.73245	-8.74040	10.98748
5431.437	-5.41696	9.95091	-2.26643	8.40741
5435.403	-8.30308	10.31213	-7.28300	9.80325
5439.438	-8.15010	10.10408	-6.46912	9.79304
5443.440	-7.76496	9.75890	-1.82981	8.33365
5447.336	-5.72598	8.90829	-7.10912	9.61799
5451.435	-6.04676	7.94333	-6.86868	9.99278
5455.439	-5.78880	8.46073	-7.13966	11.11019
5459.439	-7.78046	8.48937	-6.94164	10.17242
5463.341	-6.73593	8.34732	-6.96785	10.38831
5467.437	-8.61996	8.17533	-7.38959	10.09350
5471.436	-7.79434	8.11979	-7.21071	10.19038
5475.450	-8.12960	8.11268	-7.27081	10.13577
5479.437	-7.68116	7.80393	-7.77529	10.19937
5483.438	-7.89802	7.17164	-7.81658	10.19250
5487.437	-8.14599	7.68195	-7.61265	9.81109
5491.400	-8.04623	8.59185	-7.78901	9.98776
5495.439	-7.11381	9.40803	-7.79317	9.59558
5499.438	-7.59668	8.63425	-7.84725	9.40708
5503.422	-5.14446	8.63670	-7.62599	8.96632
5507.401	-7.80185	9.28509	-7.72025	8.84263
5511.442	-7.68035	8.22976	-7.77468	8.79256
5515.437	-7.96327	8.17741	-7.90080	8.69332
5519.439	-8.00112	7.89897	-7.92629	8.17107
5523.439	-7.94394	7.34558	-7.53003	9.00090
5527.441	-7.74191	7.27753	-7.65478	8.89223
5531.436	-7.75585	8.31933	-7.51459	8.26127
5535.437	-7.65039	9.25365	-8.24514	8.83981
5539.438	-7.28698	9.42434	-7.06439	9.55978
5543.452	-7.42654	8.93147	-7.60539	9.64651
5547.409	-7.45970	8.81411	-7.10025	9.73367
5551.441	-7.61453	8.18348	-7.83948	9.74991
5555.438	-7.70982	7.51948	-8.24589	9.62228
5559.405	-7.79946	7.40252	-8.34730	8.88774
5563.440	-7.76540	6.87277	-7.78518	8.07947
5567.441	-7.59407	8.64066	-6.98739	7.40814
5571.439	-7.53110	9.20489	-6.64413	6.82803
5575.307	-7.47851	9.18445	-7.81846	8.12992
5579.311	-8.01153	8.95625	-8.52632	9.55518
5583.314	-9.94871	8.87109	-9.83693	9.66936
5587.315	-10.06617	9.28668	-10.46565	9.76059
5591.336	-9.80238	8.99686	-10.51835	11.36809
5595.306	-9.97093	8.05146	-10.36034	9.56380
5599.314	-10.10901	8.46804	-10.86543	11.58157
5603.314	-10.24168	7.17864	-10.76087	10.12195
5607.337	-10.33058	7.76350	-10.85545	10.80621
5611.276	-10.29226	7.08663	-10.54919	9.91484
5615.313	-10.39842	7.23305	-10.12936	9.97008
5619.314	-10.40850	7.53491	-10.61696	10.95275
5623.338	-10.46630	7.71768	-10.75423	10.57015
5627.278	-10.26348	7.61586	-10.92531	10.01692
5631.317	-10.34163	8.18536	-10.43995	9.86685
5635.282	-10.49814	8.04037	-10.25324	9.53237
5639.305	-10.39100	8.58860	-10.09590	9.72832
5643.315	-10.20632	9.04934	-10.33262	8.64323
5647.321	-10.01951	8.37419	-9.87085	8.19959
5651.315	-10.12472	8.80990	-10.20010	8.78751
5655.336	-10.08486	8.74880	-10.54476	10.03569
5659.316	-10.00658	8.44001	-10.80951	10.86231
5663.318	-10.13559	8.91101	-10.64307	10.98531
5667.313	-10.01893	8.74403	-10.35777	10.94745
5671.316	-9.90192	8.88005	-10.14268	9.96704
5675.303	-9.94551	8.83327	-10.85219	11.80544
5679.314	-9.89147	8.79675	-10.34028	10.29791
5683.318	-10.01929	8.79830	-10.68978	10.58469
5687.340	-10.09311	8.71789	-10.45601	9.84161
5691.314	-10.18978	8.69996	-10.75641	9.77428
5695.278	-10.09549	8.69727	-10.30173	9.62707
5699.315	-9.89593	8.55578	-10.55073	9.45685
5703.307	-9.75582	8.54716	-10.20481	9.40796
5707.314	-9.91329	8.53087	-9.92018	7.49987
5711.317	-9.98225	8.40546	-10.08558	7.74246
5715.314	-9.81889	8.54635	-10.48044	7.65551
5719.339	-9.71037	8.59802	-10.22678	9.14362
5723.315	-10.14559	8.59048	-10.11329	8.58884
5727.315	-10.14208	8.48821	-10.10805	9.96102
5731.313	-10.12669	7.98265	-9.95319	9.17435
5735.338	-9.87155	7.95028	-10.00757	9.25258
5739.318	-9.98162	7.81180	-9.95117	9.43540
5743.314	-10.22986	7.14597	-9.87271	10.03756
5747.320	-10.12387	7.82989	-9.82983	11.28821
5751.339	-10.04937	7.43614	-10.20894	10.26959
5755.319	-10.10446	7.85518	-10.14254	10.33760
5759.296	-9.94004	7.96717	-10.21370	10.43361
5763.280	-9.96417	8.20659	-10.42163	10.62224
5767.308	-9.96145	7.95144	-10.55008	10.60052
5771.315	-9.91895	8.12530	-10.82737	10.81236
5775.318	-9.80269	8.10283	-10.70586	10.83268
5779.319	-9.92721	8.38242	-10.19656	10.66117
5783.341	-9.74673	8.41105	-10.65748	10.77454
5787.316	-9.65109	8.59348	-10.59891	10.68680
5791.316	-9.58207	8.37393	-10.75629	10.81671
5795.318	-9.61604	8.54748	-10.75023	11.03003
5799.312	-9.52724	8.50381	-10.83860	10.81340
5803.307	-9.65570	8.48525	-10.70030	10.54403
5807.280	-9.78431	8.54898	-10.62384	10.81885
5811.317	-9.79390	8.54668	-10.55881	10.92708
5815.313	-9.89928	8.43777	-10.46966	10.61993
5819.317	-9.94686	8.45404	-10.54718	10.52932
5823.315	-10.16454	8.10313	-10.35596	9.42026
5827.314	-10.32923	7.78069	-10.22726	10.29383
5831.342	-10.60725	7.42858	-9.83838	10.09825
5835.318	-10.33348	7.34641	-9.83028	9.77528
5839.316	-10.48468	7.01187	-9.52446	8.99621
5843.280	-10.58579	7.23391	-9.96022	9.61187
5847.319	-10.59948	7.77532	-10.17618	9.31094
5851.317	-10.11300	6.92893	-10.01183	10.12297
5855.317	-10.33274	7.26306	-9.96920	9.38280
5859.318	-10.55394	7.03130	-10.05835	9.22217
5863.343	-10.44801	6.95464	-10.18851	9.59007
5867.322	-10.74472	6.85265	-9.88562	9.29422
5871.317	-10.61116	6.97261	-10.25689	10.81736
5875.320	-10.57798	6.66294	-10.07865	9.45281
5879.345	-10.40680	6.71531	-10.19534	9.66820
5883.303	-10.11914	7.00903	-10.31254	10.43778
5887.314	-10.24512	7.27545	-10.28155	9.44864
5891.321	-10.32416	6.99904	-10.41880	10.70018
5895.343	-10.79073	6.81527	-10.23394	10.04054
5899.282	-10.58973	6.86424	-10.55608	10.08160
5903.317	-10.47029	6.81938	-11.02739	11.08456
5907.321	-10.36451	6.85615	-10.45197	10.61105
5911.342	-10.30920	6.84366	-9.84616	10.62377
5915.317	-10.14802	6.81850	-10.54723	10.20136
5919.319	-10.32916	6.79399	-10.50736	10.28532
5923.316	-10.26564	6.73152	-10.46467	10.40253
5927.343	-10.89571	6.50742	-10.59608	10.45374
5931.319	-10.73804	6.74243	-10.07432	10.35043
5935.321	-10.46054	6.72858	-10.56327	11.19410
5939.319	-10.49299	6.66162	-9.52734	10.18609
5943.341	-10.29339	6.66905	-10.81952	10.82914
5947.318	-10.45500	6.99540	-10.38809	10.07281
5951.320	-10.37515	7.66498	-10.36915	10.79786
5955.319	-10.41863	6.93911	-10.60279	10.59314
5959.342	-10.33346	6.79221	-10.32849	9.88143
5963.319	-10.32966	6.68223	-10.91057	11.91315
5967.282	-10.44624	7.97794	-10.43589	9.46205
5971.320	-10.03433	7.72680	-9.33369	9.21236
5975.345	-9.13175	8.49661	-8.74290	10.26348
5979.319	-8.45388	10.69966	-8.79589	11.15834
5983.323	-9.30856	10.76445	-9.02789	13.60496
5987.321	-9.75970	10.83317	-9.12565	14.11451
5991.312	-9.94732	10.95274	-9.99217	13.68693
5995.323	-8.07363	10.72121	-8.99608	12.22809
5999.320	-9.02806	10.49647	-9.16313	12.94678
6003.321	-8.95552	10.18234	-9.25151	13.80528
6007.317	-8.36678	9.84460	-9.27472	13.85643
6011.312	-8.42503	10.02741	-9.18378	14.10927
6015.322	-8.87842	9.90425	-9.04006	13.65410
6019.319	-8.93745	10.01067	-8.93743	13.53152
6023.312	-9.00210	10.00195	-9.08133	13.43252
6027.319	-9.21239	9.87017	-9.30404	12.86156
6031.320	-9.26031	9.76349	-9.20714	13.26716
6035.322	-9.12331	9.65058	-9.08145	12.46440
6039.343	-9.68727	9.66908	-9.14404	12.90937
6043.320	-9.33939	9.60781	-9.50001	13.42848
6047.327	-9.47930	9.70838	-9.53757	13.04682
6051.284	-9.26713	10.07996	-8.94975	12.73212
6055.294	-9.36554	9.81010	-8.89756	13.09842
6059.322	-9.23497	9.56372	-9.13315	13.98195
6063.322	-9.24938	9.59591	-9.36682	13.40275
6067.318	-9.03386	9.33663	-9.20530	14.55520
6071.314	-8.86027	9.45944	-8.89925	14.51000
6075.319	-8.86745	9.68243	-8.94191	14.34788
6079.321	-8.68300	9.65745	-9.14607	13.35539
6083.323	-8.90509	10.08864	-9.22687	11.09349
6087.325	-8.70175	10.19808	-8.97869	13.09323
6091.308	-8.78639	10.46572	-8.88622	12.37168
6095.325	-8.77863	10.54895	-9.27885	13.39117
6099.322	-8.83340	10.97468	-8.95043	11.90484
6103.345	-8.92638	11.02742	-9.14218	12.44083
6107.319	-9.06770	11.14223	-9.00590	12.60866
6111.322	-9.14808	11.47377	-9.11436	12.56980
6115.301	-9.28004	11.27351	-9.22378	12.45679
6119.321	-9.36580	11.36009	-9.53955	13.02400
6123.321	-9.45252	11.44625	-9.57196	12.95948
6127.322	-9.57722	11.22271	-9.56528	12.44583
6131.322	-9.58396	11.45263	-9.63841	12.70176
6135.327	-9.62232	11.41296	-9.42472	12.53912
6139.321	-9.62852	11.25005	-9.61995	12.73877
6143.325	-9.64410	11.28865	-9.65223	13.27198
6147.322	-9.65093	10.92770	NaN	NaN
6151.316	-9.61585	11.13816	-9.55934	13.64088
6155.323	-9.53332	10.33969	-9.80925	13.64850
6159.321	-9.28478	9.83807	-9.51507	13.51304
6163.322	-9.51676	9.75352	-9.58005	13.40048
6167.328	-9.49970	10.16676	-9.37508	13.15169
6171.324	-9.32929	9.61557	-9.39045	12.70986
6175.321	-9.27247	9.51573	-9.12689	12.72142
6179.324	-9.26541	9.60943	-9.40547	13.10491
6183.318	-9.29785	9.83852	-9.25939	13.45607
6187.324	-9.29176	9.60121	-9.69906	13.66750
6191.324	-9.17759	9.51383	-9.47580	13.27802
6195.325	-9.14213	9.46452	-9.46565	13.39831
6199.325	-9.07259	9.55743	-9.43233	13.02377
6203.323	-9.09802	9.59480	-9.38941	13.32572
6207.328	-9.10052	9.54654	-9.46983	13.49940
6211.328	-9.09551	9.51293	-9.33891	13.70096
6215.325	-9.28908	9.30432	-9.09720	13.56066
6219.313	-9.23809	9.23691	-9.67842	14.23563
6223.323	-9.43837	9.31603	NaN	NaN
6227.322	-9.31622	9.38832	-9.92815	13.83056
6231.288	-9.30948	9.44348	-9.78438	13.73871
6235.323	-9.31992	10.35165	-9.83086	13.92345
6239.325	-9.43267	9.83104	-9.78804	14.16257
6243.324	-9.40760	9.96088	-8.94806	13.89420
6247.327	-9.12967	10.53312	-8.59682	13.82643
6251.333	-7.50847	9.39445	-8.27027	14.21618
6255.326	-6.41648	9.83993	-6.96829	13.47476
6259.292	-4.42059	9.12859	-4.14984	12.99609
6263.290	-3.69615	9.41697	-4.09004	12.11340
6267.326	-2.21700	9.30402	-2.46469	10.04954
6271.324	-1.30895	10.11036	-1.32391	9.99941
6275.325	-1.03471	10.74184	0.16283	10.09610
6279.327	0.64853	9.95937	-0.73124	10.55567
6283.323	0.77488	9.68552	0.92676	10.06076
6287.327	-0.75846	10.39153	0.56049	10.14890
6291.324	-0.32290	10.39962	0.04432	10.11834
6295.291	0.30243	10.43476	-0.34551	10.15125
6299.325	-0.40301	10.47929	-0.19368	10.10788
6303.324	-0.32397	10.28388	-0.21249	10.86654
6307.326	-0.14379	10.26837	-0.12883	11.04541
6311.328	-0.32811	10.44478	0.22981	11.27697
6315.327	-0.28724	10.29180	0.06475	11.91514
6319.324	-0.23765	10.21937	-0.13176	11.98530
6323.326	-0.20792	10.30538	0.48098	11.82114
6327.327	-0.05862	10.33096	0.37397	11.74596
6331.324	-0.31441	10.30996	0.77732	11.56910
6335.326	-0.29538	10.39669	-0.06132	11.58432
6339.320	-0.31655	10.28181	0.32732	11.43536
6343.228	-0.09240	10.28208	0.29242	11.80104
6347.326	-0.40608	10.32552	0.20045	11.79603
6351.329	-0.14444	10.34380	0.16223	11.75481
6355.322	-0.36640	10.20108	-0.13449	11.68938
6359.324	-0.28758	10.28689	0.09699	11.84605
6363.328	0.08850	10.32203	0.16851	11.86677
6367.326	0.00745	10.35528	0.72603	11.79584
6371.327	-0.13359	10.57894	0.88724	11.65514
6375.328	-0.39358	9.54877	0.69325	11.64735
6379.326	0.00228	9.41591	0.66925	11.75719
6383.306	0.32275	9.31900	0.19303	11.80570
6387.324	0.20142	8.73342	0.27944	11.39778
6391.327	0.49929	8.64824	0.25500	11.14643
6395.326	0.16216	9.14865	0.49679	9.91886
6399.327	0.04184	9.94136	0.74923	8.29668
6403.328	0.08512	10.03274	0.94333	7.85393
6407.226	0.22251	10.27342	0.52332	9.12993
6411.327	0.05723	10.46498	0.85394	10.16792
6415.326	0.20837	10.02409	0.47177	11.08621
6419.325	0.54751	9.19046	0.11548	10.29395
6423.327	0.52887	9.26108	0.18149	10.73347
6427.316	0.33226	9.38767	-0.21909	13.26275
6431.330	0.10227	9.57536	0.34744	8.78468
6435.326	0.19405	9.77275	0.79980	10.01522
6439.331	0.28709	10.24481	1.04667	8.94095
6443.290	0.23041	10.56015	1.25838	9.28771
6447.328	0.10113	10.01987	-0.41599	9.94412
6451.335	0.23199	9.95562	-0.32635	10.54155
6455.331	0.33489	9.62380	-0.30238	10.72337
6459.326	0.18631	9.30075	-0.05542	12.82901
6463.330	0.23743	9.20041	0.34722	12.02494
6467.294	0.15464	9.36075	0.57580	12.00514
6471.206	0.21864	9.45100	0.96735	11.60495
6475.328	0.31531	8.97638	0.90321	11.33733
6479.331	0.39819	9.02875	0.55091	11.61922
6483.325	0.43130	8.60904	0.02752	11.77259
6487.329	0.65578	8.90145	-0.19777	11.87318
6491.328	0.59923	8.58263	0.02715	11.58850
6495.330	0.35514	8.75336	0.00938	11.54896
6499.328	0.33101	8.74214	0.42147	11.34787
6503.225	0.44919	8.82315	1.02255	10.03367
6507.331	0.09068	8.94425	1.27611	10.20790
6511.291	0.25547	9.43141	0.73893	9.23871
6515.332	0.36916	10.63874	0.09443	9.34340
6519.228	0.18896	10.50525	-0.01477	7.10894
6523.327	0.13317	10.28603	-0.58746	9.63196
6527.329	-0.01541	10.33570	-0.61980	9.67062
6531.328	0.11518	10.06172	-0.11518	9.28725
6535.330	0.09096	9.91569	-0.38569	9.88720
6539.328	0.20740	10.03161	0.02028	9.68467
6543.328	0.32997	10.05302	-0.19358	11.18725
6547.291	0.55094	10.11290	-1.90222	9.46756
6551.232	0.10069	10.24613	-0.82985	9.32155
6555.330	0.27319	10.09415	-0.39857	9.47806
6559.330	0.51758	10.28598	-2.18748	9.45443
6563.331	0.57992	10.13303	-0.28443	9.51170
6567.333	0.33310	10.12306	0.12007	9.45992
6571.331	0.40211	10.15701	0.55267	9.62661
6575.328	0.22852	10.21702	1.01352	9.50811
6579.292	0.21470	10.25697	-2.34129	9.38325
6583.332	0.28282	10.47998	-2.18942	9.45504
6587.331	0.40008	10.40035	-1.54242	9.23034
6591.306	0.11071	10.74928	-1.44021	9.41458
6595.330	0.12625	10.63783	-0.22207	9.20499
6599.231	0.45884	10.57815	0.49565	9.15484
6603.329	0.04323	10.70547	0.64642	11.38169
6607.204	-0.11548	11.34380	1.45066	9.37312
6611.293	-0.30875	11.65972	3.57807	10.06710
6615.235	0.23311	11.88962	NaN	NaN
6619.206	0.34077	13.92679	-1.28579	14.52124
6623.206	-1.37746	11.47248	0.12583	11.91226
6627.206	NaN	NaN	NaN	NaN
6631.236	NaN	NaN	NaN	NaN
6635.202	NaN	NaN	NaN	NaN
6639.170	NaN	NaN	NaN	NaN
6643.202	NaN	NaN	NaN	NaN
6647.164	NaN	NaN	NaN	NaN
6651.205	NaN	NaN	NaN	NaN
6655.202	NaN	NaN	NaN	NaN
6659.205	NaN	NaN	NaN	NaN
6663.202	NaN	NaN	NaN	NaN
6667.203	NaN	NaN	NaN	NaN
6671.201	NaN	NaN	NaN	NaN
6675.206	NaN	NaN	NaN	NaN
6679.167	NaN	NaN	NaN	NaN
6683.204	NaN	NaN	NaN	NaN
6687.207	NaN	NaN	NaN	NaN
6691.202	NaN	NaN	NaN	NaN
6695.168	NaN	NaN	NaN	NaN
6699.206	NaN	NaN	NaN	NaN
6703.209	NaN	NaN	NaN	NaN
6707.174	NaN	NaN	NaN	NaN
6711.168	NaN	NaN	NaN	NaN
6715.167	NaN	NaN	NaN	NaN
6719.207	NaN	NaN	NaN	NaN
6723.231	NaN	NaN	NaN	NaN
6727.206	NaN	NaN	NaN	NaN
6731.204	NaN	NaN	NaN	NaN
6735.206	NaN	NaN	NaN	NaN
6739.204	NaN	NaN	-7.68376	14.61901
6743.202	4.81572	13.74807	NaN	NaN
6747.209	-2.58905	11.38503	-5.91170	14.40952
6751.209	-2.79565	10.10294	-3.16312	14.49822
6755.211	-23.54925	13.85752	-3.51092	14.23205
6759.207	NaN	NaN	NaN	NaN
6763.193	NaN	NaN	-3.55281	14.61979
6767.209	NaN	NaN	-2.99859	12.12552
6771.207	-5.98864	4.52673	-7.85650	14.00606
6775.200	-5.97860	8.48788	-2.89643	11.50382
6779.170	-4.23078	9.99095	0.32935	9.46240
6783.182	-6.68110	9.84656	0.29094	9.67462
6787.206	-6.46426	12.72544	0.40122	8.33737
6791.231	-4.84984	11.97354	0.33029	9.16115
6795.168	-1.75967	10.93552	0.30957	9.41197
6799.208	NaN	NaN	0.30605	9.55480
6803.172	NaN	NaN	0.29595	9.74724
6807.199	NaN	NaN	0.23979	10.00337
6811.210	NaN	NaN	0.11309	9.97673
6815.208	NaN	NaN	-1.95649	10.14481
6819.208	NaN	NaN	-1.39882	9.97555
6823.234	NaN	NaN	-1.53337	10.04968
6827.204	NaN	NaN	-2.02748	10.29666
6831.209	NaN	NaN	-1.93591	10.44558
6835.208	NaN	NaN	-1.86984	10.43682
6839.232	NaN	NaN	-5.75684	10.50718
6843.208	NaN	NaN	-5.42336	10.59636
6847.176	NaN	NaN	-5.25567	10.69778
6851.210	NaN	NaN	-4.85800	10.77788
6855.233	NaN	NaN	-4.45207	10.74752
6859.211	-4.62185	10.00807	-4.60032	10.72186
6863.176	NaN	NaN	-4.98891	10.71629
6867.209	NaN	NaN	-4.78575	10.74583
6871.234	NaN	NaN	-4.72011	10.74487
6875.207	-4.08140	10.47228	-4.79267	10.74842
6879.208	-3.73828	10.24867	-4.70668	10.86665
6883.210	-3.68045	10.12744	-4.67596	10.70551
6887.230	-3.54146	10.32498	-4.59453	11.01139
6891.209	-3.49742	10.30474	-4.47612	10.94465
6895.209	-5.46337	8.81344	-4.50214	11.05085
6899.208	-5.27068	8.59803	-4.47837	11.07196
6903.236	-5.43327	8.65741	-3.76576	10.72048
6907.210	-4.81493	8.59218	-4.20795	11.31422
6911.208	-4.64083	8.60531	-4.35521	11.37577
6915.209	-4.37389	8.90052	-4.22064	11.68175
6919.209	-4.71642	8.77408	-4.19373	11.58338
6923.209	-4.27721	9.13615	-4.26250	12.11716
6927.206	-4.67572	8.74161	-3.95906	11.88114
6931.173	-4.54844	8.65260	-4.04253	12.28021
6935.214	-4.60912	8.67134	-4.00615	11.45006
6939.209	-4.39733	8.68158	-3.87574	11.52828
6943.209	-3.88275	8.72422	-4.65602	11.42804
6947.209	-4.38674	8.66431	-4.54775	11.48117
6951.201	-4.16087	8.63287	-4.76473	11.20220
6955.213	-4.21592	8.76223	-4.48784	11.52722
6959.210	-4.35536	8.58249	-4.46500	11.40132
6963.210	-4.35156	8.58658	-4.80697	11.26444
6967.204	-4.13298	8.56787	-5.07564	10.80452
6971.185	-4.21948	8.52612	-5.01649	11.29139
6975.211	-4.17596	8.65806	-4.83967	11.47346
6979.211	-3.92482	8.65102	-4.63371	10.59492
6983.232	-4.31743	8.73902	-5.75264	11.05029
6987.210	-4.29646	8.84857	-1.90782	10.12715
6991.208	-4.21735	9.02361	-4.36229	11.90949
6995.213	-4.40443	9.64064	-4.97327	11.48706
6999.213	-4.33663	8.68345	NaN	NaN
7003.210	-3.78538	8.60986	NaN	NaN
7007.215	-4.10026	9.85886	NaN	NaN
7011.201	-1.37292	12.18978	NaN	NaN
7015.213	NaN	NaN	NaN	NaN
7019.213	NaN	NaN	NaN	NaN
7023.213	NaN	NaN	NaN	NaN
7027.210	NaN	NaN	NaN	NaN
7031.211	NaN	NaN	NaN	NaN
7035.210	NaN	NaN	NaN	NaN
7039.211	NaN	NaN	NaN	NaN
7043.172	NaN	NaN	NaN	NaN
7047.210	NaN	NaN	NaN	NaN
7051.214	NaN	NaN	NaN	NaN
7055.213	NaN	NaN	NaN	NaN
7059.211	NaN	NaN	NaN	NaN
7063.212	NaN	NaN	NaN	NaN
7067.208	NaN	NaN	NaN	NaN
7071.213	NaN	NaN	NaN	NaN
7075.210	NaN	NaN	NaN	NaN
7079.217	NaN	NaN	NaN	NaN
7083.214	NaN	NaN	NaN	NaN
7087.211	NaN	NaN	NaN	NaN
7091.213	NaN	NaN	NaN	NaN
7095.193	NaN	NaN	NaN	NaN
7099.214	NaN	NaN	NaN	NaN
7103.211	NaN	NaN	NaN	NaN
7107.177	NaN	NaN	NaN	NaN
7111.233	NaN	NaN	NaN	NaN
7115.214	NaN	NaN	NaN	NaN
7119.214	NaN	NaN	NaN	NaN
7123.185	NaN	NaN	NaN	NaN
7127.204	NaN	NaN	NaN	NaN
7131.211	NaN	NaN	NaN	NaN
7135.210	NaN	NaN	NaN	NaN
7139.204	NaN	NaN	NaN	NaN
7143.210	NaN	NaN	NaN	NaN
7147.212	NaN	NaN	NaN	NaN
7151.239	-1.95966	4.38810	NaN	NaN
7155.221	-4.93373	4.19082	NaN	NaN
7159.216	-0.34933	3.94529	NaN	NaN
7163.214	NaN	NaN	-5.21570	14.47075
7167.218	-22.55576	4.56345	0.90374	14.25495
7171.213	-9.40083	3.94220	-2.09561	11.54693
7175.213	-6.06846	5.04727	-1.92379	12.77382
7179.214	-9.09776	5.06514	NaN	NaN
7183.183	-8.98339	7.44765	-1.59913	12.72252
7187.213	-8.90931	7.87809	-5.67408	10.80485
7191.215	-7.42666	8.51107	-4.44122	9.50202
7195.212	-6.07287	8.12877	-3.36193	9.64681
7199.214	-5.89881	8.10289	-2.87913	11.99168
7203.213	1.52578	10.97913	-2.53288	12.13244
7207.215	1.25178	11.88420	-1.21655	11.97722
7211.212	0.87632	10.72296	-1.79145	12.61094
7215.218	-1.22266	11.72555	-1.93933	11.96869
7219.199	-1.61049	11.52690	-0.18918	11.83189
7223.216	-1.47092	8.58099	-3.44092	11.25446
7227.214	-1.54537	8.76643	-0.70424	7.91808
7231.218	-2.04458	8.34450	-0.59007	7.69870
7235.216	-1.90175	8.30404	-1.83888	7.82825
7239.218	-1.96806	7.85236	-1.92999	7.91579
7243.213	-2.40820	7.73125	-1.81503	8.43236
7247.208	-2.20433	7.89926	-1.80412	9.92800
7251.216	-2.50335	8.42469	-1.93073	10.38024
7255.214	-1.86077	8.49562	-2.10097	10.43428
7259.215	-2.15338	8.83707	-2.08451	10.82623
7263.217	-2.07851	9.06854	-1.93437	10.38481
7267.214	-2.13524	9.18322	-0.60163	10.80131
7271.215	-2.32642	9.86413	-0.59027	10.69775
7275.214	-2.30756	9.81795	-0.48927	10.78667
7279.214	-2.16134	10.27099	-0.36613	10.91770
7283.214	-2.18483	10.13838	-0.39797	10.90199
7287.216	-2.23823	10.36814	-0.30518	10.94028
7291.216	-2.34436	10.11159	-0.27644	10.98886
7295.216	-2.17105	10.41861	-0.39636	11.08948
7299.217	-2.30201	10.23447	-2.13291	11.89369
7303.197	-2.22128	9.79495	-0.35583	11.10145
7307.217	-2.29000	10.23128	-1.51157	11.20090
7311.220	-2.36856	9.18758	-1.69877	11.24511
7315.219	-2.25464	8.73288	-1.45700	11.29006
7319.215	-2.22688	8.68217	-2.13274	11.34886
7323.216	-2.31705	8.45709	-2.40625	11.76636
7327.220	-2.34508	8.48826	-2.41388	12.12377
7331.218	-2.38539	7.87177	-2.36913	12.22163
7335.216	-2.22463	8.09315	-2.25050	12.55204
7339.215	-2.50712	8.24555	-2.44479	12.57928
7343.213	-2.44170	7.85291	-2.70671	12.65487
7347.207	-2.29708	8.10636	-2.81504	12.63663
7351.218	-2.27411	8.07689	-2.54395	12.36017
7355.215	-2.16072	8.05932	-2.84469	12.39773
7359.221	-2.54918	8.64743	-2.33006	12.09669
7363.182	-2.32654	8.40465	-2.01461	12.53952
7367.215	-2.31698	8.74391	-2.16441	12.10635
7371.217	-2.23789	9.32947	-1.77925	11.57928
7375.219	-2.06362	9.50951	-2.48473	11.62459
7379.216	-2.04151	9.61371	-2.43778	11.36205
7383.217	-2.12057	8.82799	-2.68663	11.28613
7387.190	-2.05373	9.27940	-2.61518	10.85018
7391.122	-1.92793	9.18423	-1.96479	10.62908
7395.216	-1.90277	9.29888	-2.54004	9.96943
7399.220	-1.80566	9.34057	-3.12046	9.84942
7403.216	-1.84079	9.35587	-3.18170	9.61162
7407.219	-1.70462	9.35035	-3.33629	9.51744
7411.217	-1.69220	9.31580	-3.05677	9.80327
7415.218	-1.61664	9.20287	-3.04427	9.80877
7419.217	-1.62053	9.22736	-2.23370	9.32635
7423.185	-1.65639	9.10611	-3.24026	9.22964
7427.205	-1.70266	9.18686	-3.33782	9.25050
7431.218	-1.62110	9.28004	-3.34321	9.35530
7435.181	0.77881	12.40141	-3.46751	9.41112
7439.227	1.02203	12.83370	-2.74239	9.96745
7443.219	-0.20517	13.81335	-3.43694	10.69507
7447.219	-2.82160	9.29958	-1.83982	11.27655
7451.216	-1.50395	9.20032	-3.46313	13.80367
7455.219	-1.55859	8.54970	-4.47578	13.52822
7459.221	-1.27031	9.27714	-3.40863	11.55446
7463.180	-2.42148	12.57880	-1.91449	11.46771
7467.220	NaN	NaN	NaN	NaN
7471.116	NaN	NaN	NaN	NaN
7475.218	NaN	NaN	NaN	NaN
7479.217	NaN	NaN	NaN	NaN
7483.216	NaN	NaN	NaN	NaN
7487.217	NaN	NaN	NaN	NaN
7491.218	NaN	NaN	NaN	NaN
7495.218	NaN	NaN	NaN	NaN
7499.181	NaN	NaN	NaN	NaN
7503.219	NaN	NaN	NaN	NaN
7507.219	NaN	NaN	NaN	NaN
7511.203	NaN	NaN	NaN	NaN
7515.215	NaN	NaN	NaN	NaN
7519.216	NaN	NaN	NaN	NaN
7523.214	NaN	NaN	NaN	NaN
7527.217	NaN	NaN	NaN	NaN
7531.185	NaN	NaN	NaN	NaN
7535.217	NaN	NaN	NaN	NaN
7539.217	NaN	NaN	NaN	NaN
7543.220	NaN	NaN	NaN	NaN
7547.217	NaN	NaN	NaN	NaN
7551.221	NaN	NaN	NaN	NaN
7555.224	NaN	NaN	NaN	NaN
7559.219	NaN	NaN	NaN	NaN
7563.218	NaN	NaN	NaN	NaN
7567.182	NaN	NaN	NaN	NaN
7571.121	NaN	NaN	NaN	NaN
7575.223	NaN	NaN	NaN	NaN
7579.221	-9.59452	11.51396	NaN	NaN
7583.221	NaN	NaN	NaN	NaN
7587.220	NaN	NaN	NaN	NaN
7591.223	-6.39040	2.44325	NaN	NaN
7595.220	-9.51227	8.26426	NaN	NaN
7599.218	-10.61087	10.45282	NaN	NaN
7603.223	-1.89345	-8.23685	NaN	NaN
7607.089	-6.60380	-2.98265	NaN	NaN
7611.183	-8.04553	6.91646	NaN	NaN
7615.222	-4.80219	7.97881	NaN	NaN
7619.219	-4.47846	8.56905	NaN	NaN
7623.226	-4.54131	9.42511	NaN	NaN
7627.221	-8.37434	10.33820	NaN	NaN
7631.222	-8.74258	10.64513	-11.28324	14.38472
7635.205	-8.46949	10.37522	-11.22671	14.25792
7639.131	-8.73645	9.15043	-10.55001	13.22039
7643.220	-8.59975	9.50811	-11.00498	11.84020
7647.222	-8.40788	9.15112	-10.38336	10.90774
7651.095	-8.68034	9.63312	-10.09070	10.57954
7655.090	-8.74859	9.20876	-9.58955	10.40170
7659.098	-8.76413	9.27004	-9.41953	8.14774
7663.095	-8.28816	9.66930	-9.38187	9.54344
7667.059	-9.15996	8.80689	-9.99164	9.12465
7671.094	-8.39380	9.83415	-9.43380	9.07188
7675.059	-8.19122	9.29002	-9.84351	9.17801
7679.097	-8.59235	8.86162	-9.89381	10.31302
7683.078	-8.89051	7.38719	-9.06364	9.24536
7687.223	-8.89317	7.98808	-10.27131	10.79329
7691.093	-8.86199	9.23395	-10.42485	13.57776
7695.094	-9.05040	9.08839	-9.88449	12.63680
7699.096	-8.56221	9.26306	-9.60828	12.15957
7703.121	-8.84108	9.98353	-9.62200	11.51740
7707.095	-8.74052	9.28131	-9.32195	11.17759
7711.098	-8.23216	9.45173	-9.23553	12.10290
7715.098	-7.80241	9.02211	-10.01267	12.96768
7719.125	-8.36807	8.01752	-9.72932	12.30153
7723.086	-8.98215	8.58812	-9.27629	11.82278
7727.087	-8.81435	8.41097	-9.43491	11.23566
7731.099	-8.46675	8.48284	-9.72689	10.60642
7735.119	-8.51911	8.10925	-9.90363	11.82476
7739.098	-8.43970	7.81575	-9.26309	10.16870
7743.098	-8.73635	7.46653	-9.65023	11.12637
7747.096	-8.73540	7.27552	-9.74494	12.28411
7751.096	-9.13453	7.62337	-10.12337	11.91722
7755.097	-8.68688	7.60396	-10.13580	12.05899
7759.101	-8.81101	8.00951	-9.59711	10.61567
7763.098	-8.94213	8.37925	-9.73593	9.70920
7767.058	-8.74702	8.28425	-10.18728	9.44455
7771.095	-8.59087	8.16748	-10.25286	10.96743
7775.099	-8.63311	7.64116	-10.22786	12.15112
7779.101	-8.48058	7.51380	-9.91912	11.74974
7783.090	-8.52731	7.40463	-10.00589	12.42779
7787.097	-8.66297	7.35161	-10.04841	12.55290
7791.101	-8.51549	7.26170	-9.79399	11.83388
7795.098	-8.40400	6.96399	-9.75630	12.14166
7799.119	-8.44067	6.84476	-10.14997	11.51597
7803.099	-8.48054	6.95033	-9.95377	11.17035
7807.081	-8.52569	6.77181	-9.84378	11.46347
7811.096	-8.48915	6.83460	-10.01823	11.64844
7815.093	-8.60938	6.76459	-10.16663	11.69307
7819.099	-8.71084	6.62940	-9.86531	11.81052
7823.094	-8.66991	6.68756	-9.76546	11.81555
7827.095	-8.90904	6.53823	-9.59334	11.51425
7831.127	-8.65715	6.76115	-9.76801	11.47148
7835.098	-8.71370	6.80628	-9.65985	11.54577
7839.097	-8.93779	7.12735	-9.97707	12.85775
7843.100	-9.24012	7.09734	-10.03462	11.49872
7847.121	-8.70948	9.56335	-9.49142	11.18214
7851.100	-8.98068	9.72813	-9.29991	10.69360
7855.097	-8.98847	9.73898	-9.93323	11.87998
7859.107	-8.90989	8.85797	-9.91710	14.81651
7863.095	-8.97780	8.53246	-9.05589	13.33664
7867.098	-8.83670	10.14849	NaN	NaN
7871.100	NaN	NaN	NaN	NaN
7875.095	NaN	NaN	NaN	NaN
7879.102	NaN	NaN	NaN	NaN
7883.101	NaN	NaN	NaN	NaN
7887.101	NaN	NaN	NaN	NaN
7891.078	NaN	NaN	NaN	NaN
7895.098	NaN	NaN	NaN	NaN
7899.098	NaN	NaN	NaN	NaN
7903.099	NaN	NaN	NaN	NaN
7907.112	NaN	NaN	NaN	NaN
7911.063	NaN	NaN	NaN	NaN
7915.097	NaN	NaN	NaN	NaN
7919.100	NaN	NaN	NaN	NaN
7923.075	NaN	NaN	NaN	NaN
7927.098	NaN	NaN	NaN	NaN
7931.063	NaN	NaN	NaN	NaN
7935.097	NaN	NaN	NaN	NaN
7939.086	NaN	NaN	NaN	NaN
7943.099	NaN	NaN	NaN	NaN
7947.078	NaN	NaN	NaN	NaN
7951.099	NaN	NaN	NaN	NaN
7955.101	NaN	NaN	NaN	NaN
7959.101	NaN	NaN	NaN	NaN
7963.063	NaN	NaN	NaN	NaN
7967.099	NaN	NaN	NaN	NaN
7971.092	NaN	NaN	NaN	NaN
7975.067	NaN	NaN	NaN	NaN
7979.100	NaN	NaN	NaN	NaN
7983.100	NaN	NaN	NaN	NaN
7987.097	NaN	NaN	NaN	NaN
7991.103	NaN	NaN	NaN	NaN
7995.100	NaN	NaN	NaN	NaN
7999.106	NaN	NaN	NaN	NaN
8003.126	-2.16525	0.75409	NaN	NaN
8007.102	-5.28507	1.38643	NaN	NaN
8011.103	-5.21289	3.13750	NaN	NaN
8015.085	-10.64808	9.51367	NaN	NaN
8019.125	-9.29923	7.41274	-3.74898	12.97901
8023.103	-9.44395	6.01976	-0.34588	10.75770
8027.101	-9.33113	7.60440	-0.30118	12.21540
8031.102	-9.19229	5.61566	-4.36848	13.35277
8035.123	-9.13052	9.74577	-0.30200	12.68018
8039.102	-6.68739	8.16016	-0.72427	11.87478
8043.107	-6.59329	9.36927	-2.38214	12.77799
8047.063	-6.26100	10.13474	-0.45748	9.31147
8051.101	-5.67280	10.74025	-0.66861	9.88985
8055.101	-6.76946	9.24910	-0.78027	9.42549
8059.103	-4.57618	8.53814	-1.15491	9.75848
8063.103	-5.78332	8.37178	-4.75016	13.26596
8067.125	-5.44028	9.24939	-1.83623	7.74527
8071.102	-4.67870	9.48304	-1.32381	7.36781
8075.104	-5.40405	9.79145	-1.54118	9.34041
8079.102	-5.00159	9.06899	-5.34380	10.09951
8083.093	-4.84785	6.99290	-1.85993	10.28198
8087.103	-5.07838	7.14481	-5.41866	11.26319
8091.102	-4.84361	6.56678	-5.88385	12.37273
8095.066	-4.96223	6.76818	-5.75251	11.81914
8099.097	-4.93802	6.85561	-5.66346	12.44197
8103.103	-4.97622	6.78097	-5.56721	11.71154
8107.104	-5.05550	7.05948	-5.73603	11.39957
8111.101	-5.08350	9.49158	-5.82783	11.16492
8115.127	-5.25564	8.80310	-5.93114	10.31881
8119.102	-5.04393	8.75683	-4.65353	8.61750
8123.106	-4.94691	7.04633	-5.34439	7.87266
8127.105	-5.07313	7.03299	-5.92518	10.04349
8131.126	-5.25975	7.03759	-5.86290	11.94566
8135.103	-5.59103	8.87519	-5.92800	12.09986
8139.104	-5.89674	8.32152	-6.14916	11.60740
8143.103	-6.29602	8.47851	-6.06485	10.78861
8147.097	-5.59509	7.56375	-5.76853	9.66882
8151.103	-5.58808	7.49997	-5.42680	9.03984
8155.106	-5.93961	7.38940	-5.56001	9.13255
8159.104	-5.95444	6.89300	-5.46930	8.38437
8163.105	-6.06048	6.88086	-5.19955	7.60710
8167.103	-5.84942	6.60178	-5.82481	9.62426
8171.073	-5.33696	6.47147	-5.40309	8.84889
8175.108	-5.63029	6.81036	-5.21708	9.12684
8179.106	-5.38959	6.71410	-4.87020	9.10904
8183.076	-5.71018	6.91925	-5.48189	9.65994
8187.103	-5.73158	7.36626	-5.34302	10.43396
8191.106	-5.94357	8.80101	-5.28817	10.99776
8195.109	-6.24933	7.66697	-4.96691	10.73819
8199.105	-6.48975	8.78474	-6.16788	9.97489
8203.104	-7.20192	8.57481	-8.34614	9.14888
8207.107	-9.69400	6.44588	-9.23471	9.24515
8211.070	-9.48668	6.29576	-9.41344	9.91381
8215.103	-9.82098	6.44243	-10.41174	10.50795
8219.106	-10.25841	7.38190	-11.01350	10.71777
8223.106	-10.68763	7.32290	-11.24108	10.68051
8227.106	-10.76183	7.52660	-11.27264	10.72941
8231.068	-10.33918	6.60116	-11.19891	10.64514
8235.104	-10.40216	6.74677	-11.25278	10.63666
8239.107	-10.49265	7.05725	-11.12371	10.63837
8243.105	-10.71789	6.81221	-11.14328	10.77161
8247.106	-10.85191	6.82835	-11.21209	10.40217
8251.105	-10.92586	6.44384	-10.95047	10.70074
8255.105	-10.95978	6.73148	-10.59282	10.61743
8259.103	-10.86759	7.19100	-10.68748	10.83895
8263.107	-10.85873	7.02865	-10.45298	10.63614
8267.103	-10.78494	7.18701	-10.83508	10.48070
8271.103	-10.77315	7.05057	-10.68971	10.39469
8275.096	-10.84480	7.12562	-10.55481	10.03996
8279.068	-11.03212	6.98683	-10.59013	9.93750
8283.104	-11.08290	6.90865	-10.54056	9.74925
8287.104	-11.06490	6.44168	-10.39280	9.60934
8291.099	-11.09970	6.22880	-10.58021	9.77616
8295.066	-10.90695	6.38543	-10.54682	9.77447
8299.107	-10.61536	6.92691	-10.58831	9.35748
8303.106	-10.75267	6.64438	-10.54831	9.21342
8307.106	-10.79933	6.60714	-10.60816	9.35434
8311.106	-10.62169	6.46099	-10.63473	9.59278
8315.107	-10.47355	6.59058	-10.52430	9.27629
8319.105	-10.38970	6.64243	-10.53787	9.13844
8323.008	-10.16185	6.57228	-10.60601	9.28895
8327.109	-10.28167	7.60068	-10.51909	9.28356
8331.106	-10.47254	8.48138	-10.60078	8.32080
8335.109	-10.43493	8.60040	-10.63458	8.34985
8339.006	-10.32954	8.50752	-10.51981	7.92747
8343.108	-10.54255	8.70304	-10.55404	7.88418
8347.098	-10.57433	8.78358	-10.43366	7.46323
8351.101	-10.31388	8.93133	-10.48423	7.84057
8354.988	-10.43395	8.74855	-10.66759	8.52346
8359.071	-10.43352	8.64846	-10.99432	9.43577
8363.111	-10.32195	8.54318	-11.07307	9.53120
8367.107	-10.37191	8.28927	-10.87216	9.01369
8371.073	-10.41371	8.49977	-10.87204	8.26945
8375.106	-10.23348	8.49093	-10.99970	9.50578
8379.107	-10.29137	8.34166	-10.97669	8.61084
8383.106	-10.25730	8.41155	-10.72834	7.92670
8387.006	-10.26374	8.77720	-10.40240	8.52037
8391.106	-10.89674	8.22762	-10.74664	8.38156
8395.106	-11.12168	5.92661	-10.87998	9.11089
8399.106	-10.12005	5.55265	-10.96669	10.02499
8403.007	-10.31050	5.75264	-10.96947	10.37120
8407.107	-10.09362	7.02014	-10.71547	10.88832
8411.108	-10.28282	8.29750	-10.75581	9.45093
8415.106	-10.21039	8.21873	-10.54687	8.21609
8419.005	-10.08825	8.01706	-10.62209	9.31925
8423.110	-9.78016	6.17476	-10.82713	9.20325
8427.111	-10.06624	6.07807	-10.80165	9.87694
8431.092	-10.25615	6.01563	-10.81990	10.42140
8435.003	-10.28570	5.99440	-10.78144	9.68472
8439.107	-10.08991	6.02777	-10.82936	10.14377
8443.107	-10.24742	6.14515	-10.79119	10.63895
8447.107	-10.18721	6.20648	-10.72544	10.05882
8451.108	-10.13523	6.13995	-10.92315	10.44081
8455.108	-10.28522	6.24949	-10.92550	10.78200
8459.111	-10.45653	6.16000	-10.85073	10.11061
8463.116	-10.41834	6.33620	-10.48720	9.69481
8467.110	-9.89831	6.39099	-9.27723	7.99671
8471.105	-10.20726	7.29248	-9.04352	8.55570
8475.103	-9.93383	6.81873	-9.28016	10.22013
8479.109	-10.06366	6.95616	-9.28876	9.44608
8483.110	-9.97512	6.81143	-9.89330	11.44129
8487.109	-9.76693	6.43501	-9.62664	10.64749
8491.108	-9.71466	5.98968	-9.45870	9.17405
8495.107	-9.81927	6.58393	-9.11104	8.89513
8499.007	-9.80457	7.15602	-8.96586	8.48136
8503.109	-9.92902	7.31224	-9.05800	8.39750
8507.071	-9.84457	7.40276	-9.27366	9.74931
8511.112	-9.95827	7.30974	-9.35404	9.73818
8515.075	-9.95399	7.49951	-9.52782	9.68624
8519.107	-9.77206	7.63305	-9.62548	9.53108
8523.108	-9.77197	7.83231	-9.80698	9.53872
8527.111	-9.62623	7.98832	-9.72566	9.55013
8531.110	-9.94744	7.74735	-9.58808	9.62900
8535.108	-9.50337	7.73969	-9.44402	9.56733
8539.110	-9.50235	7.89138	-9.44573	9.54154
8543.108	-9.63966	7.85352	-9.47845	9.02528
8547.111	-9.27465	7.72422	-9.56226	9.64111
8551.111	-9.62898	6.92615	-9.57956	9.87552
8555.099	-9.46051	5.82103	-9.57529	11.01056
8559.102	-9.49733	6.69449	-9.50129	9.65168
8563.015	-9.50433	6.80938	-9.36967	9.68008
8567.109	-9.55644	6.57072	-9.38240	9.93197
8571.111	-9.78399	6.86595	-9.49883	10.38468
8575.112	-9.90313	7.34712	-9.39709	11.27416
8579.012	-10.12493	7.32798	-9.43687	11.49776
8583.107	-9.66779	8.36709	-9.69229	13.63229
8587.109	-9.38938	8.46791	-9.35459	11.46385
8591.112	-7.79520	8.17244	-9.37078	11.43492
8595.111	NaN	NaN	-12.45972	14.71020
8599.081	NaN	NaN	NaN	NaN
8603.108	NaN	NaN	NaN	NaN
8607.072	NaN	NaN	NaN	NaN
8611.109	NaN	NaN	NaN	NaN
8615.073	NaN	NaN	NaN	NaN
8619.107	NaN	NaN	NaN	NaN
8623.108	NaN	NaN	NaN	NaN
8627.110	NaN	NaN	NaN	NaN
8631.110	NaN	NaN	NaN	NaN
8635.109	NaN	NaN	NaN	NaN
8639.093	NaN	NaN	NaN	NaN
8643.106	NaN	NaN	NaN	NaN
8647.108	NaN	NaN	NaN	NaN
8651.106	NaN	NaN	NaN	NaN
8655.112	NaN	NaN	NaN	NaN
8659.109	NaN	NaN	NaN	NaN
8663.109	NaN	NaN	NaN	NaN
8667.115	NaN	NaN	NaN	NaN
8671.111	NaN	NaN	NaN	NaN
8675.113	NaN	NaN	NaN	NaN
8678.989	NaN	NaN	NaN	NaN
8682.985	NaN	NaN	NaN	NaN
8686.987	NaN	NaN	NaN	NaN
8690.950	NaN	NaN	NaN	NaN
8694.986	NaN	NaN	NaN	NaN
8698.979	NaN	NaN	NaN	NaN
8702.986	NaN	NaN	NaN	NaN
8706.956	NaN	NaN	NaN	NaN
8710.990	NaN	NaN	NaN	NaN
8714.986	NaN	NaN	NaN	NaN
8718.989	NaN	NaN	NaN	NaN
8722.989	NaN	NaN	NaN	NaN
8726.976	NaN	NaN	NaN	NaN
8730.949	NaN	NaN	NaN	NaN
8734.949	NaN	NaN	NaN	NaN
8738.986	NaN	NaN	NaN	NaN
8742.988	-10.22546	12.96851	NaN	NaN
8746.986	-9.22243	9.64796	NaN	NaN
8750.987	-7.35808	7.79206	NaN	NaN
8754.988	-8.17184	7.06280	NaN	NaN
8758.986	-8.14108	6.50979	NaN	NaN
8763.104	-2.91814	1.14929	NaN	NaN
8766.992	-8.37718	5.71432	NaN	NaN
8770.954	-1.11742	0.72428	NaN	NaN
8774.986	-7.78341	5.19999	-12.96590	12.84656
8778.980	-8.23262	6.18425	-12.56538	13.04831
8782.989	-8.91137	6.90412	-11.97793	11.67356
8786.989	-8.43193	7.54774	-11.41712	8.86962
8790.989	-3.75323	8.77188	-10.20272	8.03270
8794.982	-8.15085	8.35844	-10.18365	8.50208
8798.988	-8.70328	9.05075	-9.28018	7.64390
8802.988	-9.84831	8.91479	-8.98835	8.03396
8806.991	-10.99240	8.79413	-8.30383	9.12903
8810.981	-10.42300	8.81363	-8.34422	8.80732
8814.989	-10.68851	8.46642	-8.41029	8.22455
8818.987	-10.84408	8.45879	-8.20598	9.05108
8822.989	-10.92409	8.46278	-10.26972	10.49090
8827.014	-10.28628	6.60163	-10.35937	11.05715
8830.990	-9.01857	8.94066	-10.10764	10.17846
8834.989	-8.54275	8.91095	-10.22853	12.75021
8838.991	-8.52644	8.39844	-10.40869	11.25650
8842.985	-8.89523	8.81994	-9.79276	10.93602
8846.986	-9.58289	8.49765	-10.03842	11.09089
8850.987	-9.85970	8.29666	-9.75384	10.58549
8854.978	-10.18906	8.18558	-9.87562	10.85332
8858.981	-9.51949	8.24146	-9.92637	10.54179
8862.991	-9.88916	8.22079	-9.80915	10.50965
8866.991	-10.00100	8.05103	-9.75442	10.43390
8870.990	-10.13775	7.94082	-9.70302	10.55528
8874.984	-10.12743	8.00912	-9.89330	10.97465
8878.991	-10.32198	8.10422	-9.68626	10.83750
8882.989	-10.38668	8.12238	-9.73921	10.96734
8886.987	-10.27037	7.90220	-9.73624	11.46321
8890.988	-10.18526	7.59061	-9.72672	10.71513
8894.964	-9.98762	7.88788	-9.80421	10.59263
8898.990	-10.16629	7.57320	-9.51633	9.12969
8902.989	-10.11666	7.30644	-9.24474	8.77065
8906.991	-10.16276	7.10842	-9.14636	9.25607
8910.990	-10.44405	7.81695	-9.28811	9.92209
8914.989	-10.19849	8.22996	-9.44018	10.20159
8918.989	-9.35005	5.73191	-9.10886	10.44358
8922.958	-10.53619	7.36642	-9.08876	10.76430
8926.953	-10.15143	8.41923	-8.47908	11.82788
8930.991	-10.16552	8.57835	-8.70655	12.54522
8934.953	-10.18012	8.48224	-8.46898	12.82853
8939.014	-10.27643	8.27873	-9.87924	14.09298
8942.990	-9.90392	8.69484	-10.09155	14.75307
8946.993	-11.61973	7.35250	-10.56877	14.42170
8950.989	-14.73197	6.05243	NaN	NaN
8954.984	-2.66905	7.73582	NaN	NaN
8958.953	-17.57773	6.69397	NaN	NaN
8962.992	-7.05044	3.27576	NaN	NaN
8966.996	-6.36584	3.43280	NaN	NaN
8970.985	-9.77112	7.40691	NaN	NaN
8974.992	-9.18748	8.51094	-10.88173	14.42547
8978.956	-19.99052	-12.07766	-10.05464	14.34914
8982.988	-14.90359	11.52769	NaN	NaN
8986.983	-19.99219	-12.07754	NaN	NaN
8990.992	-12.29230	11.47543	NaN	NaN
8994.990	-14.85927	11.48678	NaN	NaN
8998.991	-19.99280	-12.07749	NaN	NaN
9003.014	NaN	NaN	NaN	NaN
9006.957	NaN	NaN	NaN	NaN
9010.992	NaN	NaN	NaN	NaN
9014.992	NaN	NaN	NaN	NaN
9018.954	NaN	NaN	NaN	NaN
9022.956	NaN	NaN	NaN	NaN
9026.964	NaN	NaN	NaN	NaN
9030.991	NaN	NaN	NaN	NaN
9035.017	NaN	NaN	NaN	NaN
9038.954	NaN	NaN	NaN	NaN
9042.992	NaN	NaN	NaN	NaN
9046.956	NaN	NaN	NaN	NaN
9050.988	NaN	NaN	NaN	NaN
9054.954	NaN	NaN	NaN	NaN
9058.991	NaN	NaN	NaN	NaN
9062.985	NaN	NaN	NaN	NaN
9066.989	NaN	NaN	NaN	NaN
9070.955	NaN	NaN	NaN	NaN
9074.993	NaN	NaN	NaN	NaN
9078.998	NaN	NaN	NaN	NaN
9083.019	NaN	NaN	NaN	NaN
9086.956	NaN	NaN	NaN	NaN
9090.992	NaN	NaN	NaN	NaN
9094.963	NaN	NaN	NaN	NaN
9099.021	NaN	NaN	NaN	NaN
9102.993	NaN	NaN	NaN	NaN
9106.993	NaN	NaN	NaN	NaN
9110.992	NaN	NaN	NaN	NaN
9115.021	NaN	NaN	NaN	NaN
9118.994	NaN	NaN	NaN	NaN
9122.992	NaN	NaN	NaN	NaN
9126.993	NaN	NaN	NaN	NaN
9130.992	NaN	NaN	NaN	NaN
9134.993	NaN	NaN	NaN	NaN
9138.994	NaN	NaN	NaN	NaN
9142.981	NaN	NaN	NaN	NaN
9146.990	NaN	NaN	NaN	NaN
9150.993	NaN	NaN	NaN	NaN
9154.995	NaN	NaN	NaN	NaN
9158.991	NaN	NaN	NaN	NaN
9162.993	NaN	NaN	NaN	NaN
9166.999	NaN	NaN	NaN	NaN
9170.998	NaN	NaN	NaN	NaN
9174.995	NaN	NaN	NaN	NaN
9178.995	NaN	NaN	NaN	NaN
9182.995	NaN	NaN	NaN	NaN
9186.961	NaN	NaN	NaN	NaN
9190.993	NaN	NaN	NaN	NaN
9194.992	NaN	NaN	NaN	NaN
9198.991	NaN	NaN	NaN	NaN
9203.006	NaN	NaN	NaN	NaN
9206.956	NaN	NaN	NaN	NaN
9210.992	NaN	NaN	NaN	NaN
9214.991	NaN	NaN	NaN	NaN
9218.996	NaN	NaN	NaN	NaN
9222.995	NaN	NaN	NaN	NaN
9226.973	NaN	NaN	NaN	NaN
9230.969	NaN	NaN	NaN	NaN
9234.958	NaN	NaN	NaN	NaN
9238.994	NaN	NaN	NaN	NaN
9242.994	NaN	NaN	NaN	NaN
9246.993	NaN	NaN	NaN	NaN
9250.996	NaN	NaN	NaN	NaN
9254.998	NaN	NaN	NaN	NaN
9258.995	NaN	NaN	NaN	NaN
9263.022	NaN	NaN	NaN	NaN
9266.997	NaN	NaN	NaN	NaN
9270.987	NaN	NaN	NaN	NaN
9274.993	NaN	NaN	NaN	NaN
9278.994	-9.47466	5.64955	NaN	NaN
9282.995	-3.33965	-1.40657	NaN	NaN
9286.999	-6.88529	8.84141	NaN	NaN
9290.994	-9.52036	9.71457	NaN	NaN
9294.998	-8.61302	7.52798	-2.03908	13.53717
9298.998	-9.06969	11.78040	-6.76831	13.66232
9302.998	-0.39586	-2.03725	-1.59093	11.23146
9306.997	-6.96778	8.98364	-1.83588	12.61686
9310.968	-6.79856	8.40964	-1.50534	10.83444
9314.997	-6.83355	8.90794	-1.40708	9.86135
9318.988	-6.92193	9.11186	-6.89580	11.01700
9322.996	-7.17802	9.77848	-6.75167	10.26864
9326.999	-6.99991	9.09703	-4.86670	8.09543
9330.995	-6.64028	9.48629	-8.71581	9.79685
9335.004	-6.91576	9.61929	-8.82291	9.80050
9338.996	-6.79569	9.24606	-7.68272	10.31304
9342.998	-6.90852	9.28692	-6.75010	12.05531
9347.001	-6.77964	9.18123	-7.51903	12.27002
9350.985	-6.57612	8.98539	-7.55037	12.35484
9354.989	-6.59885	9.17170	-7.55476	9.85277
9358.997	-7.25006	9.17642	-6.79322	7.92916
9362.998	-6.28508	9.06504	-7.14458	9.62183
9367.000	-6.21225	9.10468	-7.05127	9.52201
9370.996	-8.28796	8.89132	-7.28447	9.35848
9374.995	-6.47752	9.10094	-7.30454	9.64789
9378.998	-7.69883	8.88353	-6.92175	7.59744
9382.999	-8.05660	8.99054	-6.59743	7.47837
9386.996	-7.84990	8.83273	-7.39508	9.73503
9390.998	-7.83344	8.59801	-7.24573	9.01715
9394.963	-7.87874	8.94880	-7.31206	9.86170
9398.896	-7.98104	9.06457	-8.03594	10.28519
9402.998	-7.90438	8.58870	-7.26849	9.77325
9406.999	-7.07178	8.87582	-7.02805	10.08607
9410.998	-6.70244	9.01671	-7.29128	9.71389
9414.999	-7.63935	8.55300	-6.41952	10.30326
9418.998	-7.64240	8.61302	-6.84955	10.93071
9422.997	-7.46470	8.16443	-7.26302	11.99976
9426.998	-7.71162	7.92509	-7.06923	11.06193
9431.002	-7.77658	7.33499	-7.23633	10.53347
9434.964	-7.62957	7.60054	-7.18909	9.41111
9439.003	-7.51576	8.74908	-6.93489	8.57410
9442.997	-7.22024	8.28679	-7.21647	11.90897
9446.999	-7.01839	8.07490	-7.44835	11.71890
9450.997	-7.34143	7.16403	-7.40662	10.85848
9454.998	-7.53510	7.41477	-7.42537	11.00714
9458.998	-7.57093	8.45002	-7.69505	9.54227
9463.000	-7.49432	8.12796	-7.37209	10.48289
9467.000	-7.50054	7.73841	-7.51932	10.18816
9471.002	-7.44735	7.55518	-7.61799	11.09891
9474.993	-7.53905	7.59648	-7.54252	11.29663
9478.898	-7.70212	8.37900	-7.47080	11.05060
9482.960	-7.67918	8.53996	-7.70448	10.04863
9486.997	-7.59863	8.36085	-7.62104	9.59761
9490.999	-7.88137	8.13792	-7.80894	9.82173
9495.003	-7.92746	8.18308	-7.69454	11.14028
9498.956	-8.02954	8.69571	-8.04154	11.52870
9502.999	-7.69259	9.07567	-7.45028	13.14509
9506.998	-7.50783	9.60322	-8.03346	11.56203
9511.003	-7.65278	8.62331	-11.55597	12.89362
9514.999	-7.55944	10.22567	NaN	NaN
9518.999	-7.44147	14.18684	NaN	NaN
9522.998	NaN	NaN	NaN	NaN
9526.897	NaN	NaN	NaN	NaN
9531.001	NaN	NaN	NaN	NaN
9535.000	NaN	NaN	NaN	NaN
9538.998	NaN	NaN	NaN	NaN
9542.998	NaN	NaN	NaN	NaN
9546.999	NaN	NaN	NaN	NaN
9550.998	NaN	NaN	NaN	NaN
9555.000	NaN	NaN	NaN	NaN
9559.003	NaN	NaN	NaN	NaN
9562.997	NaN	NaN	NaN	NaN
9566.998	NaN	NaN	NaN	NaN
9570.969	NaN	NaN	NaN	NaN
9575.001	NaN	NaN	NaN	NaN
9578.998	NaN	NaN	NaN	NaN
9582.997	NaN	NaN	NaN	NaN
9586.962	NaN	NaN	NaN	NaN
9590.999	NaN	NaN	NaN	NaN
9594.995	NaN	NaN	NaN	NaN
9598.999	NaN	NaN	NaN	NaN
9602.874	NaN	NaN	NaN	NaN
9606.981	NaN	NaN	NaN	NaN
9610.997	NaN	NaN	NaN	NaN
9614.999	NaN	NaN	NaN	NaN
9618.964	NaN	NaN	NaN	NaN
9623.000	NaN	NaN	NaN	NaN
9627.000	NaN	NaN	NaN	NaN
9630.999	NaN	NaN	NaN	NaN
9635.003	NaN	NaN	NaN	NaN
9638.978	NaN	NaN	NaN	NaN
9642.982	NaN	NaN	NaN	NaN
9647.001	NaN	NaN	NaN	NaN
9651.008	NaN	NaN	NaN	NaN
9655.000	NaN	NaN	NaN	NaN
9659.000	NaN	NaN	NaN	NaN
9662.999	NaN	NaN	-5.48705	12.82473
9666.998	NaN	NaN	-3.09290	9.35761
9671.006	NaN	NaN	-3.21028	8.93150
9675.007	-1.54663	11.32296	-5.72188	10.21219
9679.002	-5.89937	5.03148	-5.86131	9.56991
9682.997	-1.77241	8.53601	NaN	NaN
9686.995	-1.75852	8.69106	NaN	NaN
9691.007	-1.71595	7.12247	NaN	NaN
9695.003	-2.18850	6.71241	NaN	NaN
9699.006	-2.07784	8.69810	NaN	NaN
9703.000	-4.66761	7.40289	NaN	NaN
9706.968	-4.46551	5.69314	NaN	NaN
9711.003	-2.97354	5.68776	NaN	NaN
9715.003	-1.99486	6.30580	NaN	NaN
9719.000	-4.12764	5.82326	NaN	NaN
9722.877	-4.34472	7.16142	NaN	NaN
9726.878	-4.44129	8.78737	NaN	NaN
9730.860	-2.84264	8.16781	-1.44076	13.87438
9734.879	-2.89913	8.82961	-4.00499	8.23562
9738.902	-3.62420	9.02805	-4.00615	8.32106
9742.879	-1.05773	10.12970	-2.07834	8.29993
9746.876	-3.49171	9.61966	-1.69076	11.36412
9750.876	-3.85241	9.70948	-1.95289	11.32663
9754.904	-3.79082	9.54336	-1.80194	11.27409
9758.879	-3.14296	9.55192	1.08507	14.78161
9762.876	-3.07483	8.92419	NaN	NaN
9766.882	-2.71991	8.94993	1.04349	14.77889
9770.872	-2.88584	8.49232	1.37183	14.76341
9774.841	-2.60379	8.79608	2.89760	14.26665
9778.842	-2.27045	9.27655	3.06026	13.78356
9782.878	-1.67008	9.72837	-2.04560	10.39404
9786.903	-1.45785	11.17776	-2.01955	9.58757
9790.880	-1.68694	9.53229	-1.88846	9.30600
9794.878	-2.25836	10.10162	-0.54411	9.48739
9798.843	-2.07080	8.90619	-0.93748	9.11774
9802.870	-2.25499	7.86498	-0.65536	8.68270
9806.877	-1.91628	7.97137	-1.41134	12.79272
9810.879	-1.99454	7.82152	-1.10122	9.16068
9814.859	-1.85018	7.69407	-1.14940	9.40372
9818.849	-1.71526	8.47142	-1.50809	9.03903
9822.880	-1.88883	9.32645	-1.46216	8.04975
9826.877	-2.11512	9.00073	-1.44937	6.88184
9830.879	-2.28888	7.34733	-1.18264	7.81325
9834.873	-2.28271	7.52563	-0.65426	7.12537
9838.880	-2.27506	8.42643	-0.53515	8.41069
9842.879	-1.98093	9.24292	-1.13943	9.73734
9846.878	-1.97855	8.78385	-1.45155	9.09090
9850.907	-2.08500	7.67934	-1.16691	8.49618
9854.870	-1.86117	7.58936	-0.72077	7.33904
9858.870	-2.44839	7.92142	-0.69866	7.29576
9862.879	-2.12962	9.09827	-0.75521	7.13693
9866.878	-2.01067	9.28373	-1.44763	7.23657
9870.884	-2.02183	9.38849	-1.47828	7.40163
9874.880	-1.90349	8.46458	-1.13047	7.45926
9878.879	-1.92721	7.13695	-1.57193	7.87351
9882.901	-1.96204	8.09554	-0.89979	7.22103
9886.880	-1.80883	9.09212	-0.65677	7.38288
9890.881	-1.77372	9.59688	-1.48245	7.33183
9894.880	-3.78756	8.60126	-1.37684	7.58951
9898.872	-1.89392	8.70497	-1.32409	7.72298
9902.879	-1.79210	8.57332	-0.93889	11.10769
9906.884	-2.02197	8.49693	-1.39366	10.18837
9910.883	-1.92647	8.54854	-0.99467	8.96512
9914.879	-1.89813	8.19267	-0.93470	7.70514
9918.882	-1.96124	8.58045	-0.97963	7.78089
9922.879	-1.65366	8.40454	-1.01997	7.61588
9926.881	-2.19452	8.62870	-1.41556	7.48099
9930.903	-2.04832	8.43232	-1.56246	7.32049
9934.883	-1.86972	8.45782	-1.26143	7.32302
9938.883	-1.82596	8.23339	-1.16515	7.51986
9942.878	-1.61900	8.34455	-0.99075	7.30959
9946.874	-1.63700	8.15110	-1.32344	7.39424
9950.879	-1.41271	8.10583	-1.06830	7.44224
9954.881	-2.18952	8.07579	-1.11045	7.64794
9958.880	-2.16089	8.35203	-0.89537	7.71464
9962.908	-1.63487	8.75307	-0.98544	8.19146
9966.881	-2.09546	9.10474	-1.04496	8.05927
9970.883	-1.73708	9.91994	-1.06495	8.27704
9974.883	-1.39745	10.10100	-0.99365	8.42750
9978.905	-1.25793	9.11617	-0.97085	8.30971
9982.877	-1.35472	9.83492	-0.86438	8.50134
9986.882	-1.94032	9.05878	-0.92530	8.74247
9990.884	-2.37069	9.55864	-0.99219	9.01639
9994.903	-2.40687	9.79056	-2.58457	9.28517
9998.881	-3.40244	9.45706	-3.30413	9.54231
10002.882	-3.00376	9.43957	-3.27546	8.82248
10006.886	-3.39485	9.21331	-3.39451	8.49878
10010.904	-3.84547	8.85826	-2.11279	7.74702
10014.881	-3.53011	7.71499	-2.14382	6.82172
10018.884	-3.63043	6.67399	-3.43932	8.06472
10022.861	-3.71725	9.46421	-3.46889	9.58746
10026.852	-3.35407	9.32278	-3.60927	10.39035
10030.883	-3.52064	9.06956	-3.60442	9.19466
10034.882	-3.60252	8.79652	-3.57651	9.44730
10038.883	-3.61906	7.98994	-3.67593	7.85681
10042.905	-3.73329	8.22647	-2.90223	8.13653
10046.845	-3.70863	7.54953	-2.93116	7.48208
10050.882	-3.82331	7.61608	-3.00542	7.39782
10054.884	-3.80164	7.70611	-3.07815	7.34286
10058.879	-3.96647	7.37709	-3.41224	8.01893
10062.883	-4.03986	8.08787	-3.40707	7.95636
10066.876	-4.00840	8.23845	-3.36104	8.60716
10070.882	-4.11673	8.42415	-3.22544	10.05457
10074.877	-4.37826	8.90741	-3.12655	10.42921
10078.883	-4.14969	8.53831	-3.01017	10.36536
10082.886	-4.15796	8.10343	-3.07327	8.61312
10086.884	-4.09303	8.09675	-3.16475	8.32895
10090.906	-4.18272	7.94197	-3.42641	8.69767
10094.883	-4.18351	8.40587	-3.42848	9.77283
10098.883	-4.13865	8.45343	-3.60662	10.70066
10102.884	-3.91865	8.45552	-4.37811	11.04484
10106.888	-3.90326	8.51266	-3.67477	8.78253
10110.884	-3.70833	9.12577	-3.76665	9.82292
10114.884	-3.77214	9.25989	-3.75474	8.55064
10118.885	-3.89708	9.09751	-3.96308	8.22506
10122.906	-4.16319	8.52671	-3.84547	8.76304
10126.883	-4.17719	7.90490	-3.75257	7.80878
10130.883	-4.33589	8.50774	-3.78173	8.06505
10134.888	-5.21636	8.26655	-3.71730	7.91178
10138.907	-3.79376	8.99727	-3.55525	7.75516
10142.887	-4.48816	8.26894	-3.69308	7.73720
10146.885	-3.09567	8.31265	-3.70383	8.03943
10150.886	-3.70512	6.29161	-3.60005	8.52292
10154.886	-3.45667	7.74547	-3.34017	8.02052
10158.882	-3.43086	7.01539	-3.61599	8.26560
10162.883	-3.75012	7.66796	-3.36005	8.40148
10166.886	-3.45732	7.47534	-3.42984	9.52771
10170.875	-3.74029	7.67501	-3.33099	8.71298
10174.850	-3.96842	7.12349	-3.62618	10.41406
10178.884	-3.81108	7.17209	-3.38145	10.74676
10182.848	-3.79136	7.65949	-3.54000	10.85271
10186.876	-3.76870	8.07667	-3.77797	12.58304
10190.884	-3.76099	8.09501	-3.23650	10.73574
10194.884	-3.74019	8.39099	-2.98487	8.85666
10198.884	-3.74753	8.21211	-3.54566	9.54880
10202.885	-3.89555	8.55675	-2.20146	7.56948
10206.888	-3.77706	8.77348	-3.25785	6.81012
10210.887	-3.85607	9.35097	-3.71211	7.12646
10214.887	-3.87514	8.67403	-3.76235	7.77460
10218.889	-3.83663	8.64605	-2.58056	7.68471
10222.895	-3.85244	8.05074	-2.85700	7.89380
10226.887	-3.91795	7.27018	-3.65940	8.79869
10230.886	-4.02885	7.85009	-3.54618	7.82577
10234.882	-4.28848	7.74480	-3.36260	7.54731
10238.848	-4.55941	7.93123	-3.53187	7.81060
10242.885	-4.43026	8.19106	-3.54994	7.63869
10246.886	-4.36873	8.17512	-3.17876	7.30574
10250.887	-4.23468	8.36676	-3.47178	7.59480
10254.884	-4.47691	8.48858	-3.61149	10.32152
10258.884	-4.51687	8.77448	-3.57817	9.44280
10262.886	-4.63489	8.48863	-3.46728	8.80561
10266.886	-4.59847	9.23027	-3.65836	10.49864
10270.871	-4.39888	8.47669	-3.71407	10.44112
10274.879	-4.08372	8.96285	-3.72855	11.17729
10278.885	-4.02947	8.90686	-3.54287	11.36204
10282.889	-3.80508	8.91151	-3.64536	11.39500
10286.887	-3.47102	8.92025	-3.51485	11.63129
10290.885	-3.76497	8.93727	-1.77836	8.62370
10294.848	-4.66435	9.40688	-3.57632	8.47154
10298.878	-4.22162	9.35405	-2.92101	7.40499
10302.886	-4.87761	8.79267	-3.88542	8.16329
10306.889	-4.50663	7.75357	-3.26881	6.63823
10310.885	-3.99363	8.02577	-3.02947	7.45973
10314.879	-3.42060	7.64482	-2.94356	7.95319
10318.888	-4.21681	7.65220	-3.82655	8.02754
10322.885	-4.19030	7.89905	-3.70663	7.99868
10326.891	-4.32893	7.93068	-3.30950	8.03069
10330.880	-4.40041	8.12499	-3.69479	8.28433
10334.886	-4.05745	7.88336	-2.97079	7.94433
10338.883	-4.20578	7.81814	-3.49347	8.31564
10342.849	-3.64921	7.87612	-3.84377	8.31534
10346.882	-3.25162	7.83658	-3.36475	7.84879
10350.885	-3.88651	7.78251	-2.85405	7.12671
10354.873	-3.69222	7.76523	-2.51777	7.25965
10358.849	-4.09542	7.56599	-2.33695	6.81185
10362.890	-4.13663	7.51842	-3.17265	6.94003
10366.887	-4.38548	7.25146	-3.37465	7.94884
10370.887	-4.36375	7.39236	-3.46763	7.98080
10374.893	-4.30828	7.05077	-3.57402	7.80784
10378.891	-4.43858	7.48690	-3.94599	9.36510
10382.887	-4.76036	7.45273	-3.75865	9.87918
10386.887	-4.68609	7.29917	-3.63359	9.96405
10390.890	-4.51494	7.92235	-3.03954	9.78462
10394.888	-4.35173	8.05452	-3.28598	9.79851
10398.883	-4.50898	8.40811	-3.33272	9.66925
10402.886	-4.31575	8.81070	-3.44802	11.92046
10406.852	-4.36128	8.37654	-3.61666	12.49629
10410.892	-4.14976	8.68090	-3.41051	12.26205
10414.890	-4.29779	8.73062	-3.36448	9.85083
10418.888	-4.31018	8.51137	-3.54166	9.75098
10422.891	-4.36774	8.07453	-3.55590	9.77511
10426.894	-4.47082	8.22372	-3.58588	10.24853
10430.888	-4.42089	8.27641	-3.64157	10.75716
10434.892	-4.42506	7.49522	-3.43630	9.65888
10438.871	-4.46776	7.12823	-3.54452	9.59719
10442.793	-4.56193	7.51248	-3.39043	7.27219
10446.889	-4.42286	7.36812	-3.58739	7.31312
10450.890	-4.81998	7.71006	-3.35051	6.07862
10454.888	-4.69559	6.82883	-3.25471	5.89567
10458.891	-4.49904	7.40523	-3.38207	7.26947
10462.890	-5.12553	7.67741	-4.80263	8.65154
10466.888	-8.75642	7.54635	-7.44640	8.29719
10470.888	-8.57088	8.39329	-8.87937	8.81425
10474.901	-8.72117	7.97821	-9.81722	9.41130
10478.878	-9.40941	8.95414	-11.23093	8.99974
10482.891	-9.99031	7.73481	-10.62449	8.31113
10486.890	-10.06891	8.18806	-11.62951	8.63256
10490.763	-11.68122	8.00369	-11.63025	8.44900
10494.891	-10.91485	7.97465	-11.72883	9.64835
10498.888	-11.23370	7.75052	-11.93139	10.12595
10502.889	-11.38841	7.50346	-11.95536	9.54261
10506.767	-11.64004	7.25058	-11.68312	8.60033
10510.890	-11.71170	7.41532	-11.24533	8.40135
10514.892	-11.64004	8.07349	-11.69483	8.05085
10518.892	-11.96553	8.04702	-11.80580	8.66955
10522.791	-11.66660	7.67954	-11.93795	9.00136
10526.890	-10.73663	7.79738	-11.55392	9.23969
10530.890	-11.34993	8.06266	-11.95790	10.20097
10534.889	-11.30381	8.21445	-12.05993	9.97524
10538.789	-11.32676	8.24461	-12.08727	10.49588
10542.891	-11.24967	8.30976	-11.94327	10.23711
10546.892	-11.29190	8.09478	-12.42015	11.84428
10550.886	-11.55993	8.26415	-11.93814	9.58387
10554.891	-11.76616	8.24554	-11.91564	10.67659
10558.894	-10.94043	8.28795	-12.46666	10.77417
10562.875	-11.14132	8.35710	-12.25121	12.78114
10566.887	-11.38573	8.22898	-12.25138	11.65535
10570.790	-11.25466	8.15985	-12.29223	10.83670
10574.896	-11.51933	8.26416	-12.62263	11.08426
10578.891	-11.20108	8.21080	-12.37257	11.45893
10582.890	-10.98779	8.17726	-11.93926	9.74550
10586.893	-11.43219	7.81595	-11.81089	9.37480
10590.854	-11.58089	7.51029	-12.15272	9.37587
10594.892	-11.56517	7.28099	-12.71635	11.94418
10598.893	-11.44540	7.23742	-12.45177	10.42070
10602.888	-11.55545	6.24495	-12.38140	10.19540
10606.851	-11.47665	7.31098	-11.82552	9.62949
10610.892	-11.76323	7.18782	-12.44008	9.38357
10614.854	-12.00531	7.58760	-11.53534	7.73019
10618.790	-12.76442	7.20434	-11.48165	8.47222
10622.892	-11.53101	6.53070	-11.61473	8.11921
10626.895	-11.68081	7.29749	-11.79422	9.97364
10630.894	-12.25654	7.22473	-11.79289	9.79684
10634.795	-13.01715	6.95251	-11.98194	11.80752
10638.888	-11.48859	6.80887	-12.07339	11.48052
10642.896	-11.81194	7.44843	-11.83358	10.48106
10646.872	-12.53346	7.31016	-11.97940	12.08654
10650.791	-11.36653	6.68711	-11.90046	9.75728
10654.890	-11.72089	7.32579	-11.51590	10.54623
10658.855	-11.90961	6.70592	-11.40996	8.81316
10662.890	-12.67293	7.03936	-11.73390	10.02338
10666.893	-11.50780	7.22766	-11.81028	10.33183
10670.891	-11.80909	6.99180	-11.97251	10.90273
10674.893	-11.90186	6.89699	-11.97308	11.80051
10678.893	-11.45789	6.68870	-11.99025	12.15552
10682.896	-11.56250	6.58778	-12.10001	12.42822
10686.880	-12.06520	7.03675	-12.23531	12.65317
10690.885	-11.82530	6.75746	-11.93334	12.15087
10694.894	-12.02796	6.87459	-12.18557	12.25887
10698.893	-11.97178	7.18092	-11.99612	12.53733
10702.891	-14.01681	9.63327	-10.42226	12.65628
10706.856	-11.22948	11.08685	NaN	NaN
10710.891	NaN	NaN	NaN	NaN
10714.792	NaN	NaN	NaN	NaN
10718.891	NaN	NaN	NaN	NaN
10722.891	NaN	NaN	NaN	NaN
10726.855	NaN	NaN	NaN	NaN
10730.892	NaN	NaN	NaN	NaN
10734.857	NaN	NaN	NaN	NaN
10738.892	NaN	NaN	NaN	NaN
10742.767	NaN	NaN	NaN	NaN
10746.893	NaN	NaN	NaN	NaN
10750.893	NaN	NaN	NaN	NaN
10754.768	NaN	NaN	NaN	NaN
10758.768	NaN	NaN	NaN	NaN
10762.770	NaN	NaN	NaN	NaN
10766.769	NaN	NaN	NaN	NaN
10770.767	NaN	NaN	NaN	NaN
10774.777	NaN	NaN	NaN	NaN
10778.759	NaN	NaN	NaN	NaN
10782.769	NaN	NaN	NaN	NaN
10786.766	NaN	NaN	NaN	NaN
10790.766	NaN	NaN	NaN	NaN
10794.730	NaN	NaN	NaN	NaN
10798.726	NaN	NaN	NaN	NaN
10802.731	NaN	NaN	NaN	NaN
10806.771	NaN	NaN	NaN	NaN
10810.769	NaN	NaN	NaN	NaN
10814.772	NaN	NaN	NaN	NaN
10818.742	NaN	NaN	NaN	NaN
10822.770	NaN	NaN	NaN	NaN
10826.772	NaN	NaN	NaN	NaN
10830.768	NaN	NaN	NaN	NaN
10834.769	NaN	NaN	NaN	NaN
10838.767	NaN	NaN	NaN	NaN
10842.767	NaN	NaN	NaN	NaN
10846.731	NaN	NaN	NaN	NaN
10850.771	NaN	NaN	NaN	NaN
10854.774	NaN	NaN	NaN	NaN
10858.757	-12.03363	6.60787	NaN	NaN
10862.764	NaN	NaN	NaN	NaN
10866.770	NaN	NaN	NaN	NaN
10870.770	-13.44144	12.19286	NaN	NaN
10874.769	NaN	NaN	NaN	NaN
10878.793	-9.50185	7.27634	NaN	NaN
10882.773	-10.98250	7.46664	NaN	NaN
10886.760	-9.65958	6.45730	NaN	NaN
10890.771	-10.51638	8.10720	-18.51847	14.32617
10894.795	-11.54611	7.16798	-19.98899	-12.07778
10898.786	-10.20346	-1.17847	-19.98901	-12.07777
10902.736	-11.69502	8.74488	-11.44714	13.25774
10906.736	-11.57762	7.53397	-11.53005	13.05749
10910.764	-11.87655	8.20024	-11.32917	14.84310
10914.769	-11.93135	6.35389	-11.52329	12.99979
10918.768	-11.88216	7.85018	-10.22481	11.57149
10922.770	-12.15647	6.92160	-10.48389	11.86508
10926.795	-12.33347	6.50049	-10.44617	11.17441
10930.734	-12.93064	6.72907	-10.66644	11.38550
10934.770	-10.31165	8.60085	-11.79858	12.67092
10938.772	-9.91474	8.81258	-12.25519	12.26905
10942.774	-10.98157	8.67598	-11.73155	13.64891
10946.771	-10.79255	9.05907	-10.60136	13.04686
10950.770	-10.96320	8.97697	-9.65471	11.30437
10954.771	-9.97693	9.04380	-9.80732	12.92925
10958.765	-10.50856	8.85728	-10.04061	13.90281
10962.771	-10.49296	8.55250	-10.39498	14.11186
10966.771	-10.96746	8.74368	-11.13083	14.44969
10970.770	-10.94674	8.08592	-10.87230	13.15451
10974.798	-10.81272	7.39259	-11.02815	13.85751
10978.778	-10.75830	8.18191	-10.65896	12.97452
10982.772	-10.91320	8.33488	-10.89166	13.24387
10986.737	-10.89154	8.12211	-10.92459	13.29557
10990.737	-10.89015	8.04453	-10.85059	12.93457
10994.773	-10.90389	7.72028	-11.07398	13.42283
10998.773	-10.84116	7.44417	-11.31805	13.81976
11002.772	-10.95210	7.52973	-11.12906	12.90846
11006.800	-10.88362	7.49196	-11.42117	13.58783
11010.771	-10.85952	7.33581	-10.94509	13.06150
11014.772	-10.81583	7.17506	-11.08655	13.16445
11018.774	-10.77200	7.05528	-10.98836	13.10062
11022.796	-10.70682	6.38795	-10.87343	12.71715
11026.743	-10.53950	6.26028	-10.89956	12.20579
11030.772	-10.52612	6.97575	-10.84688	11.27816
11034.773	-10.55068	7.13412	-10.86917	11.55058
11038.765	-10.52180	7.73555	-10.61991	11.05547
11042.770	-10.49951	8.03095	-10.44122	10.41072
11046.771	-10.18950	7.90309	-10.48797	10.69200
11050.775	-10.27746	7.99599	-10.67787	12.40724
11054.799	-10.25507	7.43654	-10.63492	11.16903
11058.774	-10.25843	6.73343	-10.61919	12.68006
11062.771	-10.24980	6.94329	-10.80829	13.32585
11066.758	-10.35198	7.69781	-10.73296	12.04429
11070.799	-10.37506	8.83482	-10.33920	11.45117
11074.773	-10.30668	8.38793	-10.55826	11.09568
11078.780	-10.17860	8.22641	-10.33939	10.79004
11082.772	-10.14720	8.41796	-10.42898	10.67126
11086.795	-10.11447	8.59221	-10.37191	10.37099
11090.777	-10.09176	8.14240	-10.29997	9.65761
11094.775	-10.09174	8.26451	-10.33769	10.32906
11098.773	-10.02357	8.32335	-10.06140	9.76049
11102.798	-9.92767	8.62391	-10.08880	9.53691
11106.737	-9.89313	8.52207	-9.87008	9.37345
11110.748	-9.83696	8.59550	-10.03243	9.48913
11114.736	-9.79910	8.63979	-10.05320	10.29546
11118.777	-9.82438	8.48344	-10.22070	10.52877
11122.774	-9.80563	8.55603	-9.98961	10.38249
11126.774	-9.84727	8.69105	-9.94260	10.70882
11130.776	-9.83419	8.74562	-10.22752	11.18174
11134.797	-9.89631	8.88580	-9.88174	10.64828
11138.775	-9.89427	8.98819	-10.17108	10.99385
11142.776	-9.92764	9.10095	-10.09335	11.08723
11146.776	-9.98283	9.03984	-9.95269	10.77070
11150.777	-10.00435	9.15934	-9.93366	10.70329
11154.775	-10.04494	9.13820	-9.76878	10.59724
11158.774	-9.99270	9.12278	-9.78758	10.68821
11162.774	-9.99128	9.07660	-9.79597	10.65848
11166.768	-9.96699	9.14308	-9.81424	10.25141
11170.776	-9.92764	9.18851	-9.88653	10.23852
11174.746	-9.93834	9.06667	-10.20498	10.96954
11178.779	-9.86131	8.93447	-9.85727	10.20396
11182.777	-9.81465	8.68026	-9.82402	10.35836
11186.775	-9.68672	8.75410	-11.14827	12.00777
11190.774	-9.59464	8.71066	-9.98875	12.20448
11194.767	-9.46206	8.82742	-10.71334	13.14239
11198.766	-9.32671	8.90732	-10.63600	13.76049
11202.746	-9.00082	8.93580	-10.76072	12.87049
11206.776	-9.49132	9.23340	-11.19581	14.13814
11210.777	-9.45136	9.17683	-10.85672	12.52705
11214.769	-9.32468	8.90175	-11.13277	12.87327
11218.775	-9.11019	9.03386	-10.96210	11.76349
11222.775	-9.05170	9.03523	-11.11062	12.61170
11226.778	-9.04217	9.10460	-10.96906	11.35919
11230.786	-9.02680	9.27304	-10.76214	10.14202
11234.737	-8.91166	9.46721	-10.66790	10.00424
11238.775	-8.92706	9.31421	-10.17906	10.00346
11242.774	-9.06572	9.44390	-10.13571	10.07499
11246.779	-9.03011	9.53661	-10.40605	10.24539
11250.775	-9.15437	9.53942	-10.58565	10.64429
11254.774	-8.98976	9.81873	-10.26437	10.86806
11258.777	-9.05086	9.90607	-9.72366	11.03172
11262.777	-8.89158	9.87090	-9.83580	11.06555
11266.775	-8.97484	9.34338	-9.95822	11.62316
11270.777	-9.00060	8.19774	-10.08356	12.82032
11274.762	-9.13393	8.64618	-10.15449	13.04846
11278.782	-9.14743	8.65751	-10.23447	13.16780
11282.776	-9.26885	8.40574	-10.14634	13.36561
11286.776	-9.54498	8.23919	-10.32246	13.69436
11290.777	-9.44013	8.31240	-10.36684	13.14691
11294.778	-9.45039	8.57568	-10.01070	11.38053
11298.776	-9.25301	9.16041	-10.32820	12.07923
11302.738	-8.98545	8.95797	-10.28981	11.65632
11306.792	-9.27385	9.33275	-9.79240	9.66331
11310.784	-9.24919	9.60609	-8.47027	9.27039
11314.779	-9.21411	9.63123	-9.83469	11.58639
11318.745	-9.10001	9.63897	-9.77324	12.18892
11322.774	-9.22535	9.93192	-10.14213	12.31700
11326.773	-9.61742	9.23634	-10.45262	12.68748
11330.774	-9.29580	8.28687	-10.14357	12.73490
11334.777	-9.27397	8.19421	-10.38329	12.49070
11338.776	-9.07080	8.55785	-10.58349	11.70014
11342.781	-9.07661	9.39122	-9.01043	11.58974
11346.777	-9.11300	9.57976	-9.30493	11.36770
11350.776	-8.96433	9.57571	-9.72973	9.22229
11354.781	-8.89913	9.83090	-9.61054	10.75676
11358.768	-9.11109	9.92355	-9.92524	11.37113
11362.773	-9.27769	9.99910	-10.61629	12.86402
11366.777	-9.39409	10.67233	-10.58632	13.07458
11370.777	-10.07952	9.35699	-10.05483	13.28953
11374.783	-9.23147	8.27136	-10.25999	13.39001
11378.778	-9.12725	8.54692	-9.92781	12.78770
11382.781	-9.26331	8.50576	-10.65400	11.69449
11386.774	-9.21019	8.39500	-10.00654	10.62566
11390.784	-9.17529	8.72950	-10.41887	11.55908
11394.777	-9.25243	8.64978	-10.45269	12.19947
11398.780	-9.22692	8.93864	-9.97163	10.43738
11402.771	-9.28047	8.93606	-9.90323	11.52723
11406.745	-9.00414	9.34011	-9.51606	10.84754
11410.778	-7.29333	10.11325	-8.66103	12.33671
11414.779	-6.18502	9.62419	-8.45295	12.01046
11418.779	-6.05653	10.26085	-6.61053	12.32382
11422.782	-4.83881	10.64852	-6.34206	11.95577
11426.743	-5.14067	9.13077	-3.31796	10.78589
11430.742	-4.67904	10.51139	-5.08714	12.32898
11434.738	-4.22323	8.99458	-4.55117	13.02348
11438.679	-4.05937	9.29412	-4.27054	12.19580
11442.780	-4.63144	9.30951	-4.28476	12.89798
11446.779	-4.34934	9.02749	-4.11434	12.70488
11450.780	-4.25235	8.85502	-4.46855	13.09019
11454.780	-4.19993	9.06362	-3.97518	12.92390
11458.781	-3.57884	9.23058	-4.67389	13.17785
11462.781	-3.39626	9.22021	-4.17818	12.87742
11466.743	-4.03848	9.58766	-4.38210	13.14116
11470.783	-3.69793	9.67776	-3.78056	13.00528
11474.781	-3.98736	9.65813	-4.98352	11.35159
11478.784	-3.76559	9.52622	-4.69231	11.99019
11482.770	-3.93186	9.77030	-4.44995	12.47869
11486.783	-3.99692	9.81208	-4.42984	11.13945
11490.781	-4.24821	10.19811	-4.79265	11.58492
11494.783	-4.54119	10.12896	-4.66778	11.91097
11498.778	-4.27933	10.58438	-3.93398	11.57026
11502.784	-4.19612	10.66363	-4.46675	10.79620
11506.780	-4.05490	10.74924	-4.20306	11.21019
11510.780	-4.23554	10.63852	-4.03455	10.74752
11514.783	-4.26654	10.18611	-2.89869	10.63297
11518.784	-4.44309	10.12928	-3.36169	10.20817
11522.784	-4.75548	9.45056	-3.18215	10.21102
11526.747	-4.55283	9.25321	-3.88080	10.44643
11530.782	-4.65395	8.76254	-3.86870	10.55619
11534.783	-4.59640	8.75274	-4.15243	11.40664
11538.782	-4.44802	8.59701	-4.03122	11.02967
11542.743	-4.56424	8.42611	-3.80394	10.64815
11546.779	-4.33325	8.61111	-3.90612	9.82705
11550.747	-4.36923	9.19574	-3.74725	10.02549
11554.780	-4.15468	9.02891	-3.29458	9.74937
11558.782	-4.26657	8.80680	-3.78239	10.30847
11562.784	-4.56779	8.88585	-3.10619	10.03246
11566.784	-4.64539	9.19837	-3.82388	9.59652
11570.782	-4.61420	8.91683	-3.47737	10.38556
11574.781	-4.52937	9.06608	-3.05246	9.24600
11578.782	-4.38075	8.69249	-4.37976	10.18352
11582.679	-4.38544	9.10107	-4.25248	10.14512
11586.782	-4.38859	8.77160	-3.95053	10.36707
11590.781	-4.57154	8.75207	-3.91153	11.08687
11594.782	-4.47585	8.52857	-4.28547	14.48484
11598.780	-4.63481	8.59044	-4.23515	14.11460
11602.781	-4.68994	8.63868	-4.13320	13.29695
11606.745	-4.62633	8.79060	-3.80861	13.28699
11610.776	-4.55892	8.58921	-3.88488	12.37876
11614.748	-4.47960	8.61711	-3.67126	12.43202
11618.781	-4.46892	8.65513	-3.69684	11.93016
11622.782	-4.43732	8.67090	-3.88335	12.55386
11626.782	-4.39294	8.70409	-3.88372	12.11706
11630.782	-4.52930	8.50206	-4.11014	13.14272
11634.782	-6.02180	8.56925	-4.88771	12.62722
11638.778	-7.20861	8.85735	-8.93525	11.41878
11642.783	-7.27167	8.69099	-7.89194	13.25014
11646.783	-8.86136	8.68650	-9.21967	12.43897
11650.754	-9.88733	8.47737	-11.63985	12.68976
11654.781	-9.87211	8.42588	-11.76711	12.83712
11658.785	-10.61356	7.66891	-11.90010	12.20763
11662.787	-11.10830	7.17042	-12.08978	12.09085
11666.782	-10.85583	7.33371	-12.17473	11.96796
11670.781	-10.99977	7.11202	-12.39646	12.61674
11674.747	-10.84896	7.09392	-12.17954	12.28278
11678.731	-10.97724	7.18470	-12.15742	12.11512
11682.787	-11.07945	7.02521	-12.19991	12.17633
11686.783	-11.09456	7.01798	-12.28934	12.16952
11690.766	-11.08937	6.95220	-12.50787	12.41370
11694.648	-11.17164	6.94301	-12.37143	12.47601
11698.783	-11.15179	6.96284	-12.38341	12.33743
11702.784	-11.22919	6.99173	-12.39198	12.10874
11706.786	-11.17398	7.30115	-12.69247	12.44955
11710.785	-11.21969	7.84006	-12.39142	12.06954
11714.782	-11.22525	7.07343	-12.31246	12.27843
11718.784	-11.18530	7.31763	-12.20240	12.26123
11722.782	-11.21226	7.17935	-12.22699	12.75342
11726.788	-11.14340	6.92301	-11.62092	12.56966
11730.782	-11.07393	7.14379	-12.03890	12.70897
11734.751	-11.14474	7.48818	-12.12891	12.22034
11738.786	-11.17577	6.97927	-12.04386	12.16585
11742.685	-11.25533	6.76958	-12.11671	12.76154
11746.746	-11.13325	6.71768	-11.96322	13.00655
11750.785	-11.08165	6.64821	-12.10070	12.72784
11754.785	-11.12008	7.04687	-11.83717	12.79653
11758.785	-11.31319	7.26271	-11.65508	12.48062
11762.781	-11.20586	8.76893	-11.37226	12.00581
11766.783	-10.98903	9.40218	-11.04047	11.70371
11770.785	-11.13222	9.01325	-10.79284	11.24188
11774.687	-11.25400	8.89822	-10.79011	10.62920
11778.783	-11.16973	7.89285	-11.00840	11.10097
11782.656	-11.27629	8.01489	-11.50129	12.71554
11786.657	-11.19304	7.45172	-11.37207	12.46267
11790.681	-11.29655	6.67474	-11.26588	11.96318
11794.658	-11.27679	6.70967	-11.36680	12.03910
11798.659	-11.31113	7.60376	-11.05699	11.21348
11802.659	-11.16022	8.38186	-10.99905	9.54812
11806.788	-10.81940	8.71856	-12.53876	12.27944
11810.658	-10.33870	7.62194	-11.88863	10.91573
11814.660	-11.35802	8.34592	-12.02197	12.67327
11818.660	-11.36021	7.93729	-11.70697	12.54742
11822.786	-11.24516	7.64231	-11.16820	12.28745
11826.660	-11.36477	7.85869	-11.45627	10.95219
11830.660	-11.34070	7.96872	-11.78873	12.43877
11834.662	-11.14082	7.62046	-12.07678	11.62354
11838.789	-10.41942	7.46333	-11.29980	11.89633
11842.659	-11.01744	7.87451	-11.03860	11.43053
11846.662	-11.41469	7.77791	-11.03360	11.54654
11850.661	-11.35191	7.59601	-11.00503	11.56625
11854.683	-11.40508	7.71125	-11.17023	11.83624
11858.666	-11.20567	7.75827	-11.35432	11.66394
11862.645	-11.30097	7.75980	-11.27436	11.64624
11866.658	-11.26887	7.67312	-11.79753	11.56308
11870.621	-10.93392	7.77166	-11.34118	11.12278
11874.662	-10.80247	7.64112	-11.21969	11.65598
11878.659	-10.73253	7.69609	-10.87096	11.10704
11882.667	-11.37529	7.81678	-11.16182	11.55558
11886.684	-11.44258	7.88049	-11.18544	11.71413
11890.662	-11.56891	7.88729	-10.94007	11.65353
11894.662	-11.28703	7.93463	-10.98109	10.38976
11898.659	-11.10039	7.93341	-11.10503	10.41750
11902.683	-11.29782	7.94674	-11.21014	11.85996
11906.661	-11.09831	7.73156	NaN	NaN
11910.659	-11.05856	7.27430	-11.74658	12.97061
11914.662	-11.00192	7.21460	-11.19280	13.05662
11918.652	-11.22659	8.06947	-11.31636	12.66159
11922.663	-9.40914	8.60929	-10.36980	12.43030
11926.625	-8.05679	8.68181	-9.19338	10.54481
11930.663	-5.95086	8.73081	-6.88113	10.29626
11934.686	-4.62426	8.01187	-4.98738	10.94803
11938.661	-4.03897	7.67264	-4.17267	11.42581
11942.664	-3.42651	7.59847	-1.69465	9.69922
11946.642	-0.94894	6.78888	-1.10993	8.87979
11950.627	-0.58364	6.07257	1.42149	6.61952
11954.663	0.91582	5.74538	3.30816	5.58608
11958.662	1.26956	5.94186	4.14892	11.80965
11962.661	1.65647	6.28697	3.22866	9.94876
11966.653	1.96154	6.39323	3.99716	9.35939
11970.660	1.70611	6.43811	3.89083	9.26489
11974.662	1.58063	6.50887	3.48293	9.09834
11978.662	1.96427	5.99934	3.69672	9.17237
11982.665	2.59965	6.10941	3.50843	10.07428
11986.654	3.46021	5.99632	3.99099	9.59083
11990.654	1.85556	6.01301	3.30725	10.88969
11994.663	1.74166	6.26726	3.77402	10.56219
11998.695	1.52493	6.55707	4.28918	10.51439
12002.664	2.23392	6.70354	4.38077	10.62136
12006.664	2.15777	6.40167	3.69113	10.68055
12010.662	1.95951	6.64022	3.88787	10.50765
12014.663	2.59314	6.87427	4.55771	8.55146
12018.664	2.06047	6.91267	4.09639	10.75999
12022.662	2.49743	6.98115	4.36049	9.82858
12026.660	1.40490	7.61339	4.36392	9.53909
12030.629	1.83942	7.30479	4.07234	9.30703
12034.665	2.58323	7.35031	3.90412	9.01878
12038.665	2.24004	7.32649	3.94883	9.03398
12042.662	2.17239	7.69442	4.20459	8.94455
12046.629	1.88546	7.83104	3.70028	10.61824
12050.662	1.78473	8.23856	3.97664	9.83203
12054.666	1.15585	8.02782	3.92507	10.03165
12058.674	1.99404	7.68762	3.96007	9.61018
12062.687	2.19227	7.46636	5.10061	9.43317
12066.668	2.57003	6.92416	3.53266	9.40758
12070.648	2.87779	6.75623	3.75951	7.07861
12074.659	2.12835	7.70037	3.78266	5.14914
12078.656	1.40981	7.81328	3.95994	5.43406
12082.662	2.23315	7.97423	4.32590	5.84579
12086.666	1.90787	8.03135	4.86443	6.36556
12090.663	2.07182	7.97068	4.60434	6.18845
12094.656	2.33031	8.16259	4.35681	5.47741
12098.663	2.30704	6.53217	3.89738	6.85075
12102.663	2.12937	6.14917	4.05298	6.45855
12106.665	2.10193	6.24033	4.62365	7.25716
12110.655	2.34513	6.77278	4.79159	6.89216
12114.657	2.27748	6.48674	4.57467	6.92470
12118.666	1.90740	6.88354	4.63065	6.87255
12122.666	2.01104	7.00878	3.46202	7.63959
12126.690	2.18949	7.56941	4.28170	7.87766
12130.663	2.37617	6.86746	4.60841	7.30004
12134.667	2.39872	6.60256	4.40910	7.05779
12138.665	2.61897	6.51218	4.77352	6.76813
12142.664	2.73764	6.53436	4.89020	6.72642
12146.664	2.76371	6.23798	4.91198	6.75938
12150.668	2.68804	6.43448	4.79287	6.42438
12154.645	1.84146	6.75270	4.64529	5.81270
12158.634	1.86236	6.97264	4.68849	6.89689
12162.669	1.60216	7.72984	5.15130	9.26907
12166.664	1.71950	8.13969	4.58614	9.98120
12170.667	2.20208	8.47893	4.33167	9.95077
12174.663	2.41009	8.38899	4.12740	7.40747
12178.664	1.98886	8.51338	4.74848	7.53295
12182.665	2.12468	8.73406	3.58957	7.17796
12186.669	1.51033	8.76128	4.17161	7.08396
12190.671	1.89930	8.68631	3.92769	7.06126
12194.667	1.88440	8.50401	4.70863	7.01158
12198.657	2.18572	8.14481	3.93436	5.12973
12202.666	2.04577	8.58038	4.60079	6.31507
12206.662	1.94325	8.59836	4.50049	7.55479
12210.667	2.15566	8.49894	3.47379	7.52683
12214.665	1.71724	8.44940	4.43216	7.29597
12218.667	2.00995	8.51949	3.65836	7.25723
12222.660	2.30781	8.34048	3.58274	9.14363
12226.665	2.06005	8.24287	3.74973	10.21458
12230.666	1.93611	8.35136	3.97158	9.84263
12234.629	1.99270	8.25532	4.27829	9.29438
12238.632	1.83722	8.41666	3.77241	8.18885
12242.665	1.76569	8.47288	4.56318	8.50881
12246.664	1.80020	8.54256	3.65161	8.23783
12250.668	2.06235	8.34353	3.74038	7.66544
12254.667	3.37163	8.33862	5.67278	7.19120
12258.669	1.85519	9.74257	6.28040	7.38594
12262.669	2.50974	10.39754	4.92671	9.12195
12266.667	2.71280	11.46400	6.28131	9.63166
12270.681	NaN	NaN	1.64367	13.95331
12274.668	NaN	NaN	NaN	NaN
12278.665	NaN	NaN	NaN	NaN
12282.662	NaN	NaN	NaN	NaN
12286.697	NaN	NaN	NaN	NaN
12290.639	NaN	NaN	NaN	NaN
12294.663	NaN	NaN	NaN	NaN
12298.665	NaN	NaN	NaN	NaN
12302.669	NaN	NaN	NaN	NaN
12306.628	NaN	NaN	NaN	NaN
12310.645	NaN	NaN	NaN	NaN
12314.666	NaN	NaN	NaN	NaN
12318.663	NaN	NaN	NaN	NaN
12322.629	NaN	NaN	NaN	NaN
12326.668	NaN	NaN	NaN	NaN
12330.664	NaN	NaN	NaN	NaN
12334.662	NaN	NaN	NaN	NaN
12338.631	NaN	NaN	NaN	NaN
12342.668	NaN	NaN	NaN	NaN
12346.667	NaN	NaN	NaN	NaN
12350.668	NaN	NaN	NaN	NaN
12354.632	NaN	NaN	NaN	NaN
12358.634	NaN	NaN	NaN	NaN
12362.626	NaN	NaN	NaN	NaN
12366.637	NaN	NaN	10.76623	14.10257
12370.666	12.44770	11.68308	10.75550	14.03784
12374.670	9.54773	9.14594	12.95447	12.57456
12378.669	11.77051	8.79725	12.08067	11.72305
12382.668	11.72841	8.40434	11.68853	10.66914
12386.657	12.02976	10.86206	10.95091	9.29299
12390.670	15.59179	12.55344	7.88714	11.04014
12394.669	11.08352	9.11817	8.04424	9.31876
12398.669	-1.28596	7.21930	11.24418	8.39451
12402.656	5.14697	8.67159	11.06320	6.53717
12406.634	0.90890	7.41790	10.87486	6.81198
12410.667	5.02351	9.82106	13.01197	5.09951
12414.667	11.84259	11.96515	11.47641	5.50892
12418.668	8.20437	8.35368	10.99197	9.76339
12422.634	7.31999	12.85550	11.42203	6.39651
12426.724	5.94258	8.17736	10.39479	6.09946
12430.671	7.54476	7.11917	10.96370	6.17626
12434.630	5.50646	6.35162	10.27729	6.60056
12438.673	5.97050	6.42482	10.12363	6.69623
12442.669	6.19501	6.22241	10.11714	6.97992
12446.667	6.40258	6.22931	10.35731	6.47751
12450.670	6.19976	6.55768	10.11534	7.38381
12454.670	6.39263	6.39454	6.98944	4.30722
12458.672	6.28815	6.60092	6.97164	4.19192
12462.571	6.09842	6.65744	10.00690	7.62117
12466.669	6.27729	6.77003	10.17812	7.57374
12470.668	6.24970	6.98349	10.01520	7.40939
12474.670	6.26223	7.12436	10.08914	7.35947
12478.663	6.35841	7.33050	10.33396	8.29981
12482.676	6.45410	7.49583	9.79279	7.68398
12486.636	6.09258	7.59441	10.01207	7.88490
12490.670	6.18995	7.25594	9.90850	7.89119
12494.675	5.20110	7.24466	9.35839	7.79030
12498.669	5.46615	7.07275	8.44538	7.93497
12502.671	6.05022	6.57084	9.20663	8.72706
12506.672	6.27895	6.56874	9.01244	8.14806
12510.696	5.80020	6.59699	9.82115	8.78788
12514.672	6.31421	6.29597	9.56718	7.20561
12518.672	6.70996	6.20845	9.65821	6.96172
12522.670	6.62228	5.46788	9.52454	7.21033
12526.570	6.00460	3.61422	9.51761	6.86780
12530.636	6.02472	3.99851	10.00697	7.02887
12534.673	5.57372	3.84536	10.08938	6.81368
12538.672	5.87314	4.48768	10.14901	7.78861
12542.673	6.08291	5.44263	9.14673	9.16259
12546.673	5.54449	5.53273	9.75432	6.76548
12550.674	6.25907	5.51067	9.50081	4.79889
12554.672	6.21387	5.30993	9.49827	4.36188
12558.578	6.08941	5.75882	9.39595	3.41455
12562.671	6.52576	5.89259	9.81178	2.07800
12566.673	5.68696	6.17209	9.77098	2.85390
12570.672	5.90283	6.37934	9.65611	2.84938
12574.567	5.93942	6.66344	9.91914	3.40187
12578.673	6.00160	6.94539	9.67649	3.45891
12582.673	6.21318	7.00734	9.61238	3.69078
12586.674	6.45324	6.78504	9.66274	4.10216
12590.569	6.35537	6.80272	9.92350	3.92643
12594.674	6.26672	6.55490	9.77879	4.22763
12598.671	6.40670	6.81806	10.12183	4.51695
12602.673	5.99947	6.69782	10.29257	4.95424
12606.574	6.03587	6.51481	9.44409	4.32957
12610.634	6.48708	6.25388	9.21819	4.75102
12614.663	5.81530	6.80194	9.44728	3.90349
12618.671	6.28550	6.28634	9.77777	3.67748
12622.571	6.24063	6.28856	8.30092	4.04614
12626.670	6.32517	6.06312	8.90705	4.14447
12630.634	6.47487	6.10396	9.00966	3.45848
12634.671	6.33152	6.30477	9.42885	3.03609
12638.571	6.28815	6.38051	10.19067	2.05027
12642.672	6.39717	6.26193	9.67205	1.35151
12646.672	6.48372	6.36614	9.86782	8.66420
12650.673	6.59762	6.62582	9.22027	10.00796
12654.673	6.94264	6.68882	9.61887	8.36097
12658.672	6.51030	6.71866	10.04831	7.89970
12662.673	6.73174	6.86481	9.91079	7.86764
12666.672	6.54075	6.72420	9.55147	6.71225
12670.570	6.57012	6.94269	9.96992	7.54818
12674.674	6.59236	6.92750	10.38382	7.32459
12678.675	6.47532	7.02954	10.31285	7.10878
12682.674	6.62248	7.08720	9.66084	7.21728
12686.574	6.67850	7.03944	8.87384	7.30416
12690.679	6.78865	7.14424	9.38037	7.34465
12694.658	6.66080	7.10576	9.49547	7.34572
12698.674	6.62466	7.13546	8.26804	7.84236
12702.574	6.30095	7.23184	8.76435	7.34356
12706.673	6.34454	7.29201	9.16804	7.13737
12710.674	6.66677	7.30740	9.45030	6.71305
12714.675	6.62767	7.70817	9.25891	6.07549
12718.570	6.67667	7.59562	10.25735	6.77626
12722.671	6.65390	7.51527	10.09145	6.05162
12726.673	6.57617	7.46269	8.85153	6.25375
12730.675	6.70506	7.42269	9.38788	5.40392
12734.675	6.24631	7.54354	8.28228	5.76380
12738.670	6.66298	7.38684	8.54996	5.42225
12742.663	6.69760	7.39251	9.62072	4.73303
12746.673	6.74724	7.24232	10.19541	4.46421
12750.570	6.78382	7.27761	10.46073	4.73006
12754.673	6.38741	7.08401	10.32044	2.25299
12758.673	6.62941	7.13668	9.80607	2.00900
12762.672	6.51488	7.13109	9.22704	0.33590
12766.571	6.82033	6.95740	8.50387	8.21586
12770.677	6.95854	7.02251	9.47261	8.28801
12774.675	7.06537	6.86537	10.41623	8.88529
12778.648	6.59096	6.88402	8.23794	7.13270
12782.565	6.49680	6.96248	9.25857	7.19650
12786.677	6.41410	7.03846	8.63811	7.32865
12790.679	5.72541	7.22199	7.78933	1.84465
12794.674	4.14804	7.23202	4.90104	4.85695
12798.675	3.88409	7.13868	6.76922	7.11556
12802.677	3.88745	7.24966	4.71632	7.62715
12806.676	3.66056	7.49892	4.29090	9.50411
12810.675	2.82241	7.72585	2.83781	11.03521
12814.556	1.61555	8.77378	2.22297	11.34846
12818.674	1.01461	9.10993	1.90284	10.33828
12822.552	1.95745	8.95852	1.68317	11.48292
12826.516	1.31136	9.17616	2.29104	11.80354
12830.677	1.34237	9.53537	1.96697	11.77899
12834.549	1.59546	9.53224	2.08662	11.26067
12838.551	0.92130	9.34506	1.92136	8.17797
12842.551	1.55368	8.97872	0.90354	8.27921
12846.571	1.02784	8.41954	0.61416	8.44919
12850.548	1.39299	8.89187	1.23843	9.76354
12854.553	1.17076	8.97108	1.18239	11.98854
12858.548	1.01146	9.80417	1.81091	10.95904
12862.542	1.32634	9.64970	1.26019	10.58971
12866.531	1.36449	9.71328	1.54361	10.60027
12870.547	1.37230	8.94404	1.43701	8.40242
12874.550	1.40829	9.11289	2.22228	8.53201
12878.573	1.38905	8.91620	2.05353	8.59976
12882.553	1.42246	8.63005	2.60906	7.47311
12886.549	1.14940	8.52658	2.59891	8.38399
12890.553	0.99109	8.50089	0.70315	8.57169
12894.680	1.10326	8.39821	1.31870	12.31571
12898.550	1.25949	8.35991	1.40874	12.07492
12902.551	1.43404	7.94958	1.58373	11.22957
12906.548	1.48920	7.70246	1.19554	11.13291
12910.547	1.17215	7.90904	1.47298	10.77235
12914.553	1.79433	7.79736	1.53339	11.11067
12918.551	1.24109	7.54688	1.26793	10.60653
12922.515	1.41266	7.17291	1.75726	9.58397
12926.573	1.33827	7.38059	1.43932	9.74061
12930.550	1.87247	7.13191	1.58820	9.70619
12934.552	1.50755	7.12155	2.38722	9.51361
12938.551	1.42164	7.54052	2.18768	8.98459
12942.578	1.68335	7.39340	2.31604	9.07642
12946.551	1.66108	7.23560	2.00487	8.60319
12950.528	1.66869	7.16627	1.65845	8.58220
12954.550	1.52595	7.77697	2.10877	8.46499
12958.576	1.30446	7.91008	1.87396	8.61961
12962.552	1.49178	8.66145	1.88283	7.89817
12966.555	1.47109	8.11573	2.03553	7.81085
12970.552	1.40832	9.03930	1.91479	6.97581
12974.577	1.14920	9.75039	1.86662	6.20992
12978.553	1.06944	9.30606	1.91442	5.39070
12982.550	1.45418	9.41568	0.24001	8.30189
12986.554	1.03290	9.47342	1.10849	12.28351
12990.517	1.13082	9.08364	1.53724	11.54489
12994.544	0.59779	8.92351	1.74484	11.33597
12998.548	0.75920	8.74760	1.67360	10.71509
13002.554	0.63144	8.72904	1.32751	10.08156
13006.520	0.87036	8.42763	1.08914	9.81558
13010.553	0.70833	8.53560	1.08683	9.63320
13014.555	0.87059	8.08405	1.55405	7.80220
13018.553	0.79672	7.89075	1.31875	7.79105
13022.545	0.89413	7.64307	1.96010	6.94232
13026.553	1.00581	7.33243	1.78991	6.99217
13030.552	0.74771	9.06144	1.67816	7.56955
13034.521	0.83292	9.62284	1.68711	8.70232
13038.550	1.00809	9.96625	1.93341	9.61146
13042.514	1.07339	9.75857	1.71295	10.22903
13046.551	1.19304	9.80511	1.75428	10.43816
13050.553	1.57719	9.52604	1.74328	10.04648
13054.544	1.51258	9.30923	2.43402	9.80003
13058.553	1.27326	9.39650	1.47144	9.59121
13062.555	1.31235	9.45564	1.76333	8.91489
13066.554	1.44669	9.33163	1.02439	8.70428
13070.546	1.50514	9.21908	1.59472	8.11458
13074.534	1.60947	8.95139	1.53944	7.97625
13078.551	1.24143	9.18868	1.47412	7.01115
13082.552	1.29665	8.87082	2.12714	5.21791
13086.579	1.45678	8.19090	1.43069	9.76586
13090.559	1.71630	8.20409	1.45646	11.02784
13094.555	1.38431	9.42914	2.62687	10.03482
13098.557	1.43865	10.24738	4.06905	8.93120
13102.546	1.33683	10.59338	3.18155	8.57809
13106.517	1.40864	10.27960	3.68157	10.53557
13110.554	1.47350	8.84749	2.02718	12.95949
13114.549	1.25585	9.56515	1.45232	10.57161
13118.579	1.33512	9.03758	2.61798	10.62264
13122.557	1.30454	10.11173	1.99149	10.68209
13126.556	3.58855	10.19520	5.13587	9.07640
13130.557	3.11942	10.37011	2.13336	9.00969
13134.548	5.99554	10.19396	7.71918	10.74693
13138.552	8.15348	10.95070	5.60207	12.86087
13142.554	12.25780	10.72811	8.56316	10.61273
13146.555	11.47677	11.07682	NaN	NaN
13150.546	9.76264	11.43981	11.77051	12.92370
13154.554	8.21147	13.18228	5.17124	13.63446
13158.534	NaN	NaN	6.99005	12.64500
13162.553	NaN	NaN	NaN	NaN
13166.535	NaN	NaN	NaN	NaN
13170.557	NaN	NaN	NaN	NaN
13174.537	NaN	NaN	NaN	NaN
13178.554	NaN	NaN	NaN	NaN
13182.581	NaN	NaN	NaN	NaN
13186.555	NaN	NaN	NaN	NaN
13190.563	NaN	NaN	NaN	NaN
13194.518	NaN	NaN	NaN	NaN
13198.514	NaN	NaN	5.87346	11.58003
13202.552	NaN	NaN	NaN	NaN
13206.556	NaN	NaN	6.69875	11.71075
13210.558	NaN	NaN	6.63257	10.79294
13214.550	13.82319	13.56743	7.68742	13.40461
13218.556	12.07742	13.38174	8.29961	11.31654
13222.555	NaN	NaN	NaN	NaN
13226.558	7.91166	11.29142	7.77278	13.69836
13230.552	3.41968	7.99034	10.34910	13.77194
13234.554	7.77951	10.87351	9.33137	11.01428
13238.557	8.29917	7.86385	8.66006	8.76254
13242.535	9.50962	9.57474	11.60447	9.68051
13246.558	8.94053	10.85421	10.48879	9.76422
13250.555	9.20693	10.49335	12.62360	6.96938
13254.557	7.68847	11.03367	12.05257	7.19029
13258.555	7.51025	11.06450	10.94937	8.93765
13262.558	7.74376	11.03421	10.18738	8.24454
13266.558	8.72556	10.20739	10.23336	8.71410
13270.555	8.74151	8.87528	10.19252	7.63201
13274.557	7.48841	7.89102	6.82557	8.23610
13278.550	7.51239	8.03199	8.65940	6.15607
13282.536	7.05621	8.41209	9.76924	5.66823
13286.557	6.79797	8.46347	8.64978	6.37193
13290.564	6.79432	8.53343	8.15081	6.64415
13294.521	7.28954	8.62645	10.00435	5.64273
13298.555	7.19906	8.64505	8.28962	8.82054
13302.560	6.97003	8.79722	8.39370	7.99902
13306.557	6.73329	9.24867	9.13935	7.95378
13310.527	6.62966	9.20325	8.19312	9.18536
13314.555	6.82838	9.21618	6.02995	8.88047
13318.554	7.03311	9.25363	8.89167	6.93040
13322.554	6.75913	9.75666	10.84516	5.69084
13326.549	6.89646	10.35321	10.67294	6.25769
13330.558	7.09832	10.63907	11.36281	6.18412
13334.559	7.21171	9.89834	11.28725	5.80077
13338.559	7.44630	10.09122	11.32953	6.23552
13342.552	7.25221	9.97321	9.26437	6.48447
13346.559	7.49451	9.83713	9.56593	6.21032
13350.556	7.37550	9.78045	8.90378	6.73115
13354.560	7.24163	9.80494	8.97215	8.38995
13358.559	7.19639	9.81864	8.98438	7.05797
13362.558	7.38903	10.17475	8.58993	7.37765
13366.559	4.81751	10.62773	8.16783	5.92153
13370.556	5.52908	10.33808	7.79883	5.49162
13374.552	5.41625	10.57406	11.44997	8.00726
13378.521	7.20592	10.44893	13.30049	6.62804
13382.558	6.30041	10.34342	8.94082	8.85076
13386.546	7.30883	10.27986	8.59611	9.29572
13390.548	7.13045	9.77636	7.59288	9.98437
13394.562	12.75462	10.50298	8.84852	11.81332
13398.561	10.89027	10.65417	7.36750	12.71526
13402.561	10.96818	14.51685	8.08131	12.02112
13406.550	NaN	NaN	NaN	NaN
13410.549	NaN	NaN	NaN	NaN
13414.561	NaN	NaN	NaN	NaN
13418.558	NaN	NaN	NaN	NaN
13422.522	NaN	NaN	NaN	NaN
13426.557	NaN	NaN	NaN	NaN
13430.562	NaN	NaN	NaN	NaN
13434.525	NaN	NaN	NaN	NaN
13438.562	NaN	NaN	NaN	NaN
13442.558	NaN	NaN	NaN	NaN
13446.520	NaN	NaN	NaN	NaN
13450.526	NaN	NaN	NaN	NaN
13454.560	NaN	NaN	NaN	NaN
13458.557	NaN	NaN	NaN	NaN
13462.561	NaN	NaN	NaN	NaN
13466.557	NaN	NaN	NaN	NaN
13470.559	NaN	NaN	NaN	NaN
13474.560	NaN	NaN	NaN	NaN
13478.558	NaN	NaN	NaN	NaN
13482.561	NaN	NaN	NaN	NaN
13486.561	NaN	NaN	NaN	NaN
13490.541	NaN	NaN	NaN	NaN
13494.578	NaN	NaN	NaN	NaN
13498.557	NaN	NaN	NaN	NaN
13502.562	NaN	NaN	NaN	NaN
13506.559	NaN	NaN	NaN	NaN
13510.565	NaN	NaN	NaN	NaN
13514.562	NaN	NaN	NaN	NaN
13518.562	NaN	NaN	NaN	NaN
13522.558	NaN	NaN	NaN	NaN
13526.567	NaN	NaN	NaN	NaN
13530.561	NaN	NaN	NaN	NaN
13534.561	NaN	NaN	NaN	NaN
13538.562	NaN	NaN	NaN	NaN
13542.469	NaN	NaN	NaN	NaN
13546.559	NaN	NaN	NaN	NaN
13550.564	NaN	NaN	3.62971	4.10605
13554.563	NaN	NaN	2.95827	10.00336
13558.562	NaN	NaN	1.28132	3.98664
13562.562	0.16720	4.22400	6.79418	4.00843
13566.559	8.66894	11.97613	23.02093	2.71137
13570.561	2.81548	8.11877	NaN	NaN
13574.554	8.59667	11.69969	17.13241	3.05650
13578.524	8.51804	11.00272	14.93239	2.21658
13582.561	8.94305	10.63962	15.07398	8.18007
13586.559	8.10761	10.25908	18.60761	7.68890
13590.460	8.11432	10.13200	15.13041	7.89909
13594.567	7.22497	9.51728	12.37884	9.53149
13598.560	7.75144	7.81353	11.25667	9.36063
13602.562	4.96795	8.12013	9.17299	9.63300
13606.472	5.38321	9.37088	8.96189	9.32583
13610.559	5.15945	8.73640	8.68475	9.48376
13614.561	5.59383	8.92210	9.92731	8.57651
13618.554	5.07557	9.65013	7.99963	8.93963
13622.460	4.80825	8.97902	8.79271	8.62946
13626.561	4.98517	8.61793	7.37184	8.71308
13630.564	4.88454	7.93059	7.91254	8.56499
13634.561	4.75095	7.37569	7.12151	9.17584
13638.562	4.74442	7.58806	8.26889	8.61663
13642.565	4.88000	7.32321	6.97443	8.62738
13646.565	4.70328	7.05666	6.89272	8.75481
13650.561	4.63195	6.98294	8.46174	8.95199
13654.459	5.11731	6.84879	7.69417	8.52601
13658.531	5.09478	7.08409	9.04681	5.72530
13662.562	4.67135	7.44209	7.04486	8.41191
13666.564	4.81303	7.47386	7.28080	4.38296
13670.566	4.87503	7.51857	7.43230	4.51062
13674.527	4.77454	7.65176	7.79064	4.57909
13678.562	5.23905	7.60344	7.92142	3.67335
13682.565	4.84548	7.93841	8.33887	3.20543
13686.564	5.25660	8.04196	8.36985	4.47455
13690.565	4.98669	7.95139	6.14268	3.90589
13694.569	5.13318	8.02723	7.64881	4.21013
13698.563	5.03356	8.01571	8.64757	3.07174
13702.565	5.04981	7.94291	6.96252	4.15179
13706.562	4.98507	7.76917	7.22011	7.84447
13710.575	5.13378	7.72349	7.91392	8.15470
13714.562	5.06353	7.53676	6.56581	8.06016
13718.437	5.28109	7.54380	6.35287	9.01346
13722.564	5.12691	7.32812	6.14180	8.90335
13726.564	5.09453	7.21412	7.75237	7.91767
13730.563	5.06385	7.14317	7.84486	7.17955
13734.464	5.15514	6.89803	7.38763	5.04431
13738.567	5.10467	6.94508	7.10284	5.84698
13742.555	5.24617	6.73436	6.29131	7.87788
13746.565	4.94923	7.01048	6.14192	6.73092
13750.462	5.12408	7.03226	7.19696	5.62961
13754.564	4.99216	6.94281	7.01201	6.14750
13758.565	5.18907	7.10279	7.65422	5.76350
13762.564	5.06126	7.32151	6.54663	7.15570
13766.467	4.94019	8.12830	5.60932	8.14768
13770.565	5.06343	8.03773	6.19604	8.01143
13774.564	4.87707	7.57590	6.24543	6.22038
13778.564	4.95305	7.01976	6.75673	7.78184
13782.462	5.10561	7.09241	6.69184	6.70683
13786.564	5.32437	7.28049	7.01546	3.02707
13790.566	5.19052	8.09391	6.11483	6.77860
13794.568	5.25842	8.98831	6.31549	8.47611
13798.465	5.81297	7.43193	7.08060	10.55930
13802.577	5.61261	8.85056	7.14326	8.21819
13806.566	5.44958	10.02532	5.97443	8.54275
13810.566	5.68367	11.69738	6.33169	10.35672
13814.566	5.51809	10.71621	6.24031	10.34523
13818.565	5.70826	10.54630	6.76466	10.42932
13822.548	6.07479	9.37275	6.81806	10.55364
13826.564	6.40888	9.07282	6.96484	10.67622
13830.567	6.10217	8.75036	6.96819	11.07997
13834.565	6.33951	9.23661	7.22058	10.21795
13838.561	6.10470	9.18977	7.07227	10.38465
13842.566	5.88884	10.20930	7.74237	10.15941
13846.432	5.91229	10.00007	6.75147	10.84586
13850.440	6.00850	10.13606	6.89187	7.71367
13854.441	6.09820	10.14682	6.02514	7.27745
13858.439	6.23957	10.08841	5.86939	8.63053
13862.468	6.14850	9.88418	6.87014	8.06246
13866.442	6.16501	10.20579	6.25137	8.33865
13870.421	5.69052	10.75208	6.93530	9.43136
13874.442	6.65514	9.92592	7.50266	9.26553
13878.465	6.20288	9.59914	7.08815	10.03190
13882.442	7.12781	9.32683	7.42112	9.95246
13886.406	5.98537	9.97590	7.71537	9.60517
13890.442	5.90571	9.81161	7.71852	9.86623
13894.445	6.03083	9.82021	7.88950	9.82419
13898.444	6.16005	9.68066	5.67000	11.27293
13902.441	5.96097	9.74380	5.64189	9.98084
13906.405	6.24278	9.70389	5.91322	10.09007
13910.444	6.12801	9.79914	6.85060	8.02965
13914.431	6.34044	9.71606	6.47779	7.05256
13918.440	6.47725	9.68266	5.80206	7.60787
13922.402	6.52745	9.80696	6.13041	7.28604
13926.464	6.24119	9.82095	6.29237	7.95879
13930.404	6.33103	9.75242	6.37503	8.18449
13934.443	6.44608	9.99673	6.89881	7.78160
13938.444	5.66474	10.29936	6.33998	8.63260
13942.437	6.35248	10.35485	6.19618	8.15101
13946.441	6.30009	10.21796	6.68474	7.94229
13950.442	6.47088	10.27184	7.18352	8.16787
13954.410	6.56495	10.23455	6.82628	8.24380
13958.441	6.77115	9.35346	6.68200	8.93858
13962.441	6.90211	9.12395	7.36142	8.44367
13966.443	6.86002	9.29273	6.79386	9.09885
13970.443	7.03316	9.31898	7.30607	9.86946
13974.468	6.25274	8.79621	7.31399	9.28422
13978.442	6.41481	9.33684	7.32197	9.70320
13982.440	6.51278	9.28515	7.36186	8.57585
13986.442	6.42008	9.40884	7.51910	9.48985
13990.440	6.55449	9.61123	7.24928	9.48577
13994.430	6.42077	9.98901	7.29235	9.61597
13998.441	6.43885	10.31481	7.64676	9.24303
14002.445	6.43849	10.24821	7.26815	8.32131
14006.448	6.36535	10.02705	6.61080	8.82485
14010.444	6.05120	10.67018	5.34142	9.42292
14014.446	5.54658	10.71769	7.08903	9.39528
14018.440	5.02494	10.47856	7.08358	8.77080
14022.436	4.67222	9.63800	4.74484	8.76995
14026.446	4.21158	10.17141	2.47945	9.69635
14030.443	2.38217	10.15474	1.61334	9.51889
14034.438	2.24649	10.88818	2.09549	8.69033
14038.436	1.89863	10.57427	2.59658	8.50183
14042.445	1.52927	10.49516	2.09980	8.20946
14046.441	1.35276	10.81072	2.53972	8.61748
14050.442	1.40852	10.58643	2.48978	8.29024
14054.443	1.34971	10.70387	2.68175	8.49173
14058.407	1.10879	10.54522	2.75272	8.47463
14062.443	1.26550	10.47503	2.82526	8.49017
14066.443	1.02814	10.50905	2.75638	8.40965
14070.434	1.18150	10.51962	2.99460	8.41462
14074.445	1.08257	10.54000	3.17737	8.27975
14078.426	0.91711	10.54390	3.33191	8.16665
14082.445	0.94078	10.54355	2.76252	8.21538
14086.443	0.99762	10.53182	2.88968	8.43985
14090.446	0.80709	10.54972	3.02640	8.19320
14094.445	0.78119	10.50468	2.81187	8.23403
14098.448	0.97487	10.25217	2.70614	8.06944
14102.469	1.02032	9.96069	3.04442	8.10259
14106.447	0.84573	10.25357	2.75343	8.22104
14110.408	1.13305	10.31237	2.71659	8.41262
14114.411	1.36102	10.06748	2.54863	8.52390
14118.404	1.80633	8.99255	2.06086	9.28788
14122.436	1.57181	8.48432	2.06813	10.17657
14126.445	1.57295	8.18805	1.48962	11.81024
14130.445	1.21747	8.57968	2.26388	11.82383
14134.466	1.50118	8.46093	1.60620	12.09404
14138.407	1.61295	8.30409	1.91330	8.29939
14142.446	1.51521	8.58788	0.93989	9.09106
14146.444	1.61763	8.42836	1.63393	9.62895
14150.470	0.84667	8.71479	2.68871	10.19183
14154.445	0.09210	8.72521	1.92371	10.61506
14158.448	1.02692	9.61843	2.04582	8.80998
14162.418	1.02191	9.01663	2.89136	7.57849
14166.437	1.14590	9.17916	2.17824	7.21927
14170.447	0.86411	8.95534	1.65342	7.39237
14174.448	1.39877	9.14412	1.75490	8.50334
14178.447	1.70650	9.16118	1.74541	8.31260
14182.444	1.41640	9.44995	1.69894	8.02741
14186.448	1.54520	9.33071	1.75815	8.58579
14190.444	0.90155	9.47934	2.03615	8.96628
14194.409	0.20973	9.83721	2.41157	9.08493
14198.442	0.64496	9.85775	2.07559	8.64266
14202.446	1.29635	9.56579	2.14330	8.57713
14206.445	1.05099	9.52303	1.67313	9.68591
14210.448	1.21308	9.37761	1.36204	10.22216
14214.442	1.40651	9.65132	1.95398	9.70907
14218.446	1.42032	9.70350	1.60439	11.15244
14222.448	1.37759	9.53391	2.00383	10.01391
14226.446	1.00355	10.04799	2.25097	9.70031
14230.469	0.78186	9.99678	2.12317	10.30821
14234.445	0.96246	9.81558	2.19388	11.18733
14238.449	0.54168	9.93914	1.66641	11.01982
14242.447	1.14494	9.68816	1.48716	12.24415
14246.463	1.19155	9.83169	1.62311	12.19664
14250.447	1.04054	9.76333	1.65557	10.43881
14254.447	1.92706	9.51444	1.68059	12.61153
14258.445	1.28911	9.66257	1.54217	12.92969
14262.442	1.17118	9.74303	2.29676	12.72806
14266.446	0.95209	9.83274	2.09517	9.47434
14270.445	0.85061	10.24152	1.50552	9.11587
14274.447	0.76915	9.58279	0.02340	12.09046
14278.470	-1.13221	10.28366	-0.81342	14.03580
14282.451	-1.49857	11.55475	-1.13814	12.70529
14286.427	-1.60809	11.55255	-1.86536	12.91518
14290.449	-4.09098	12.03806	-4.14056	12.91779
14294.442	-3.67719	12.23691	-2.76277	13.07295
14298.448	-2.70649	11.86454	-2.53315	13.99402
14302.447	-2.74960	12.22954	-2.36710	13.25435
14306.404	-2.00656	12.41524	-2.58058	13.84333
14310.439	-2.27476	12.79686	-3.68535	13.89086
14314.449	-2.97497	12.62715	-3.40675	13.90958
14318.451	-3.14046	13.57757	-4.09888	14.29807
14322.447	-4.16147	14.12362	NaN	NaN
14326.439	-2.95911	13.29280	-2.65342	14.51883
14330.438	-3.02707	14.12537	NaN	NaN
14334.450	-2.68423	14.24125	NaN	NaN
14338.446	-2.64646	12.15224	-3.61864	14.60627
14342.450	-2.88963	12.23572	-3.01262	14.81562
14346.446	-2.53801	11.76955	NaN	NaN
14350.447	-2.65505	11.39115	-2.51770	14.65224
14354.450	-2.64473	10.72362	-3.02472	13.71305
14358.433	-2.60788	10.90827	-2.98252	13.09138
14362.450	-2.70874	10.62948	-2.63608	14.70782
14366.450	-2.77314	10.58158	-2.55391	13.40045
14370.420	-2.60644	10.56975	-2.45718	12.74014
14374.445	-2.62125	11.26664	-2.32441	13.84445
14378.449	-2.53548	10.73682	-2.84640	13.02991
14382.451	-2.61810	11.22581	-2.96710	13.83653
14386.443	-2.56394	11.14947	-2.66766	13.29544
14390.453	-2.52000	10.91800	-2.69042	13.40853
14394.450	-2.59901	10.59275	-2.52156	13.14763
14398.414	-2.61870	10.39679	-2.34099	13.63917
14402.451	-3.00490	10.90513	-2.28945	13.35113
14406.456	-2.74197	11.57826	-2.27280	13.51533
14410.434	-2.69190	13.79947	-2.49084	13.24078
14414.448	-2.89312	13.45183	-2.51376	13.52654
14418.451	-3.02606	13.50756	-2.68876	12.76243
14422.453	-2.94304	11.80476	-2.88445	13.41270
14426.450	-3.29298	12.70906	-3.11170	13.58264
14430.451	-3.36095	13.16531	-2.32721	13.04800
14434.449	-3.49236	12.91550	-2.21972	13.58712
14438.454	-3.71923	13.26054	-2.23657	13.44970
14442.448	-3.75084	12.92876	-2.58056	13.48597
14446.452	-3.10960	12.98330	-3.18428	13.73478
14450.449	-3.07627	13.41427	-3.18858	13.82071
14454.441	-3.45215	13.37772	-3.22849	13.65854
14458.448	-3.29758	13.10873	-3.37507	13.88852
14462.452	-3.26468	13.45937	-3.26839	13.78845
14466.414	-3.21565	13.16754	-2.63130	13.84324
14470.453	-3.27571	12.65924	-1.93046	14.30011
14474.448	-3.37348	13.36361	NaN	NaN
14478.452	-3.27828	12.93462	NaN	NaN
14482.449	-3.42334	12.32467	NaN	NaN
14486.453	-3.14481	12.53788	NaN	NaN
14490.454	-3.24719	14.10894	NaN	NaN
14494.431	-3.29491	13.31120	NaN	NaN
14498.457	-6.25225	12.90759	-4.17919	14.15207
14502.454	-5.38090	12.32724	-4.94859	14.38357
14506.414	-6.11709	11.89199	-5.83552	13.64885
14510.452	-6.14354	11.71534	-5.59081	13.35335
14514.450	-7.37707	11.47562	-6.85950	13.12088
14518.456	-6.27559	10.83840	-6.88678	13.15813
14522.450	-7.40914	11.17986	-7.28053	13.36073
14526.454	-7.33347	10.81071	-8.35663	13.10088
14530.452	-6.94609	10.36356	-7.69161	13.20735
14534.451	-6.38521	10.36756	-6.93699	13.16859
14538.444	-6.40793	10.99387	-6.87531	13.58624
14542.452	-7.08251	10.83561	-7.18428	13.30083
14546.450	-6.76170	11.07540	-6.81693	13.20854
14550.455	-6.99321	10.46594	-6.77098	13.38597
14554.449	-7.16857	10.37157	-6.82417	13.59121
14558.452	-7.39249	10.54354	-6.54979	12.92950
14562.454	-7.48490	10.34620	-6.60776	13.15711
14566.452	-7.50383	10.46368	-6.66318	13.27980
14570.451	-7.48344	10.30152	-6.80555	13.46355
14574.452	-6.87029	10.25060	-6.73351	12.90097
14578.425	-7.43522	10.38840	-6.84967	13.26172
14582.452	-7.39454	10.67755	-7.04232	13.38705
14586.450	-7.33149	10.43425	-7.15149	13.41387
14590.453	-7.37787	10.39795	-7.18100	13.04596
14594.454	-7.47363	10.70382	-7.35146	12.90811
14598.461	-6.48671	10.36883	-7.16468	12.48696
14602.452	-6.84164	9.93841	-7.13114	12.23762
14606.415	-6.24175	9.75156	-7.21535	12.30437
14610.451	-6.20715	10.15661	-7.18992	12.89892
14614.414	-6.64151	10.29941	-6.81960	11.00250
14618.435	-6.34709	10.09685	-7.19598	12.34618
14622.448	-6.64613	10.23652	-6.92481	12.12917
14626.456	-6.54741	10.34443	-7.18811	11.91163
14630.454	-6.71038	10.59651	-6.64038	10.27554
14634.452	-6.68362	10.71666	-7.02959	11.80912
14638.450	-6.95433	10.65708	-6.65576	9.88886
14642.453	-6.91381	10.72710	-6.67958	11.67125
14646.457	-7.23267	10.76601	-6.61254	11.57061
14650.452	-7.38097	10.72891	-6.47495	11.45416
14654.454	-8.04974	10.72560	-6.58722	11.71307
14658.451	-7.88239	10.91086	-6.75894	11.86198
14662.453	-7.61614	10.79352	-6.67405	12.14008
14666.454	-7.76630	10.68084	-6.93887	12.81078
14670.452	-8.04421	10.64611	-7.07273	13.66491
14674.416	-8.04672	10.81746	NaN	NaN
14678.421	-7.81887	10.71518	-7.37685	13.77316
14682.451	-7.96889	10.44160	-7.33681	13.09466
14686.451	-8.30111	10.06365	-7.23250	13.52874
14690.451	-8.18020	8.52543	-7.35812	12.89430
14694.459	-8.44747	9.96484	-7.37868	13.29074
14698.437	-8.20646	10.03849	-7.50676	12.77243
14702.438	-8.12293	10.13293	-7.27658	10.39468
14706.454	-8.29307	9.40203	-7.26158	11.70160
14710.350	-8.19783	9.17732	-6.78989	11.40922
14714.451	-6.51434	8.78475	-6.69694	10.88823
14718.454	-7.95270	9.34106	-6.77034	11.32597
14722.457	-7.75519	9.08943	-6.47132	11.46123
14726.457	-7.99411	9.20752	-6.85466	11.46368
14730.452	-7.69563	10.03427	-6.53294	11.87265
14734.455	-7.85027	9.63286	-6.70477	11.76495
14738.454	-7.10802	8.92996	-6.32978	10.98319
14742.422	-7.51156	8.80985	-6.44684	11.65173
14746.447	-7.79449	11.46001	-6.68969	13.88476
14750.465	-8.03346	11.17139	-7.14343	14.12383
14754.454	-8.15511	11.95067	NaN	NaN
14758.455	-8.44744	11.20511	-7.91599	14.13487
14762.452	-8.42243	11.25929	-8.66278	14.34484
14766.457	-8.31513	11.03774	-7.88030	14.27766
14770.453	-8.43018	10.59377	NaN	NaN
14774.353	-8.51409	11.04424	NaN	NaN
14778.450	-8.58927	11.08559	-7.93525	14.16319
14782.452	-8.65104	11.27141	NaN	NaN
14786.451	-8.68878	11.47893	NaN	NaN
14790.352	-8.74324	10.04840	NaN	NaN
14794.451	-8.86451	11.27937	NaN	NaN
14798.455	-8.91391	10.99838	NaN	NaN
14802.456	-8.89133	11.29285	NaN	NaN
14806.325	-9.00024	11.17374	NaN	NaN
14810.454	-8.96397	11.33786	NaN	NaN
14814.454	-8.98378	11.56487	NaN	NaN
14818.457	-9.02501	11.47476	NaN	NaN
14822.458	-8.94198	11.45536	NaN	NaN
14826.458	-8.82356	11.43651	NaN	NaN
14830.453	-8.54180	11.47268	NaN	NaN
14834.455	-8.75533	11.58182	NaN	NaN
14838.458	-8.70742	11.63488	-8.61540	13.20847
14842.418	-8.63457	11.75284	-8.83137	13.68562
14846.456	-8.46488	11.69030	-8.66700	13.42235
14850.458	-8.29662	11.74419	-8.84263	13.40409
14854.458	-7.68047	11.78000	-8.78134	13.36147
14858.417	-7.56815	12.21986	-8.85024	13.21914
14862.455	-7.71905	12.52313	-8.79996	13.20069
14866.455	-7.61558	12.36659	-8.67886	14.08380
14870.457	-7.46097	12.35051	NaN	NaN
14874.421	-7.69349	12.27186	-8.71058	13.76086
14878.456	-7.92013	12.21779	-8.73347	14.04140
14882.456	-7.72027	12.63433	-8.70444	14.50868
14886.322	-7.81456	12.67030	-8.68317	14.66055
14890.331	-7.80126	12.92812	NaN	NaN
14894.332	-8.04604	12.49972	NaN	NaN
14898.330	-8.37339	12.66316	NaN	NaN
14902.355	-8.42731	12.92417	NaN	NaN
14906.331	-8.51911	12.78756	NaN	NaN
14910.333	-8.67076	12.91438	NaN	NaN
14914.319	-8.73165	13.05626	NaN	NaN
14918.356	-8.57828	13.13991	NaN	NaN
14922.332	-8.54176	12.63605	NaN	NaN
14926.331	-8.66542	12.78216	-8.55913	14.82848
14930.334	-8.84079	12.21404	NaN	NaN
14934.331	-8.88351	12.13358	NaN	NaN
14938.336	-8.98857	12.75480	NaN	NaN
14942.296	-8.60087	12.63550	NaN	NaN
14946.332	-8.78210	13.06968	NaN	NaN
14950.361	-8.49411	12.28440	NaN	NaN
14954.334	-8.51943	12.67548	NaN	NaN
14958.301	-8.38646	12.82150	NaN	NaN
14962.332	-8.53673	12.66379	NaN	NaN
14966.334	-8.34550	13.07264	NaN	NaN
14970.331	-8.53617	13.19513	NaN	NaN
14974.333	-8.65138	12.89765	NaN	NaN
14978.333	-8.26818	13.00194	NaN	NaN
14982.324	-8.23790	12.98392	NaN	NaN
14986.330	-8.13604	12.37050	NaN	NaN
14990.332	-7.83785	11.59895	-8.80216	15.00463
14994.337	-7.85892	11.14714	-8.58818	14.59181
14998.349	-8.04180	9.78852	-8.66678	14.84899
15002.340	-7.97972	10.40912	-8.70032	14.91742
15006.337	-8.09545	10.26096	NaN	NaN
15010.298	-8.17899	11.05340	NaN	NaN
15014.358	-8.01523	10.70397	NaN	NaN
15018.334	-7.99316	11.46996	NaN	NaN
15022.333	-8.15105	11.30684	NaN	NaN
15026.331	-8.25566	11.30058	NaN	NaN
15030.335	-8.25591	10.72094	NaN	NaN
15034.337	-8.43892	11.28272	NaN	NaN
15038.332	-8.44815	11.12049	NaN	NaN
15042.327	-8.53717	11.97740	NaN	NaN
15046.358	-8.66527	11.57621	NaN	NaN
15050.334	-8.81797	11.74563	NaN	NaN
15054.337	-8.82681	11.94683	NaN	NaN
15058.334	-8.87554	12.30710	NaN	NaN
15062.358	-8.97157	12.16778	NaN	NaN
15066.345	-9.06226	12.11343	NaN	NaN
15070.333	-9.16862	12.22903	NaN	NaN
15074.333	-9.19005	12.40722	NaN	NaN
15078.326	-9.23454	12.36169	NaN	NaN
15082.314	-9.24668	12.53310	NaN	NaN
15086.333	-9.30672	12.56072	NaN	NaN
15090.334	-9.50045	12.43136	NaN	NaN
15094.334	-9.37523	12.64767	NaN	NaN
15098.334	-9.43296	12.76331	NaN	NaN
15102.338	-9.62157	12.75689	NaN	NaN
15106.335	-9.44107	13.21280	NaN	NaN
15110.329	-9.45894	12.13749	NaN	NaN
15114.299	-9.40033	12.98535	NaN	NaN
15118.336	-9.24508	13.09265	NaN	NaN
15122.324	-9.22535	13.16498	NaN	NaN
15126.357	-9.26689	13.22063	NaN	NaN
15130.337	-9.16958	12.83105	NaN	NaN
15134.335	-9.34181	11.98512	NaN	NaN
15138.337	-9.54204	12.57636	NaN	NaN
15142.357	-9.34664	12.12479	NaN	NaN
15146.298	-9.40001	12.92158	NaN	NaN
15150.337	-9.45049	12.44994	NaN	NaN
15154.337	-9.86025	12.85325	NaN	NaN
15158.362	-9.79416	12.46530	NaN	NaN
15162.337	-9.94850	12.82478	NaN	NaN
15166.303	-8.73744	11.82349	NaN	NaN
15170.336	-8.24064	12.46162	NaN	NaN
15174.361	-8.13407	11.80068	NaN	NaN
15178.334	-7.92115	11.60627	NaN	NaN
15182.339	-8.52231	11.60395	NaN	NaN
15186.335	-7.83690	12.23684	NaN	NaN
15190.330	-9.16695	11.80652	NaN	NaN
15194.336	-9.35285	11.23896	NaN	NaN
15198.335	-8.93086	11.46294	-8.98479	15.05243
15202.344	-9.48000	11.21562	-9.05228	14.73927
15206.336	-9.20973	11.02654	-9.09476	14.86702
15210.331	-9.43259	11.82226	NaN	NaN
15214.299	-9.30029	11.69763	NaN	NaN
15218.335	-9.28736	11.73224	-9.03115	14.90064
15222.331	-9.40052	11.97025	-9.03195	14.77187
15226.338	-9.27648	11.70184	-8.79172	14.90193
15230.337	-9.21967	11.12727	-8.78377	14.93259
15234.298	-9.24680	11.29538	NaN	NaN
15238.328	-9.23478	11.64548	NaN	NaN
15242.336	-9.30177	11.44337	-8.75114	14.93962
15246.337	-9.03275	11.39294	NaN	NaN
15250.332	-8.89901	11.31500	NaN	NaN
15254.335	-8.91369	11.40930	NaN	NaN
15258.336	-8.78789	11.52459	NaN	NaN
15262.336	-8.76215	11.44268	NaN	NaN
15266.340	-8.73754	11.13783	NaN	NaN
15270.333	-8.55753	11.06590	NaN	NaN
15274.334	-8.63503	11.12291	NaN	NaN
15278.334	-8.57631	10.92421	NaN	NaN
15282.300	-8.24011	11.09683	NaN	NaN
15286.331	-8.26582	10.49077	NaN	NaN
15290.336	-8.21835	10.93208	NaN	NaN
15294.309	-8.07139	10.91227	-7.50739	14.85231
15298.300	-8.15966	11.10537	NaN	NaN
15302.361	-8.29117	14.21317	NaN	NaN
15306.300	-8.35670	12.96465	-7.48383	14.59222
15310.337	-7.89744	11.63757	-7.22304	14.81263
15314.339	-7.65512	11.96246	NaN	NaN
15318.343	-7.43988	11.83006	NaN	NaN
15322.337	-7.29133	11.55516	NaN	NaN
15326.342	-7.56620	11.03687	NaN	NaN
15330.326	-7.40469	10.52280	-6.31519	14.83606
15334.364	-7.47090	10.93431	-5.97637	14.64916
15338.339	-7.81093	10.41424	-6.03591	14.72119
15342.337	-7.43061	10.34519	NaN	NaN
15346.337	-7.51066	11.35843	-5.93677	14.86369
15350.333	-7.23179	11.53653	NaN	NaN
15354.339	-7.32019	10.35077	NaN	NaN
15358.337	-7.18188	10.27262	NaN	NaN
15362.341	-7.21684	11.04930	NaN	NaN
15366.341	-7.43430	10.14314	NaN	NaN
15370.340	-7.35002	10.31915	NaN	NaN
15374.306	-7.13984	11.04308	NaN	NaN
15378.337	-7.04907	11.52857	NaN	NaN
15382.342	-7.09785	10.26372	NaN	NaN
15386.331	-7.07808	11.53837	-5.65700	14.99685
15390.340	-7.12549	11.00365	-5.59661	14.92396
15394.343	-7.06625	11.34054	NaN	NaN
15398.344	-7.01313	10.50611	NaN	NaN
15402.341	-6.98805	10.98787	-5.61362	14.99148
15406.305	-6.93178	11.60461	NaN	NaN
15410.341	-7.02323	11.28534	NaN	NaN
15414.340	-6.92939	10.82319	NaN	NaN
15418.303	-7.06642	10.81835	NaN	NaN
15422.342	-7.17414	11.27374	-5.66088	15.04711
15426.303	-7.17964	10.88333	NaN	NaN
15430.334	-6.95697	10.80361	NaN	NaN
15434.338	-7.04178	10.84930	NaN	NaN
15438.343	-7.18049	10.44240	NaN	NaN
15442.339	-7.20492	10.69031	NaN	NaN
15446.342	-7.27621	10.00661	NaN	NaN
15450.342	-7.39444	14.62968	-2.07348	14.52885
15454.337	-5.75500	13.71757	NaN	NaN
15458.334	NaN	NaN	NaN	NaN
15462.332	NaN	NaN	NaN	NaN
15466.343	NaN	NaN	NaN	NaN
15470.340	NaN	NaN	NaN	NaN
15474.341	NaN	NaN	NaN	NaN
15478.338	NaN	NaN	NaN	NaN
15482.340	NaN	NaN	NaN	NaN
15486.310	NaN	NaN	NaN	NaN
15490.344	NaN	NaN	NaN	NaN
15494.339	NaN	NaN	NaN	NaN
15498.329	NaN	NaN	NaN	NaN
15502.320	NaN	NaN	NaN	NaN
15506.303	NaN	NaN	NaN	NaN
15510.339	NaN	NaN	NaN	NaN
15514.342	NaN	NaN	NaN	NaN
15518.319	NaN	NaN	NaN	NaN
15522.342	NaN	NaN	NaN	NaN
15526.342	NaN	NaN	NaN	NaN
15530.339	NaN	NaN	NaN	NaN
15534.342	NaN	NaN	NaN	NaN
15538.328	NaN	NaN	NaN	NaN
15542.330	NaN	NaN	NaN	NaN
15546.340	NaN	NaN	NaN	NaN
15550.307	NaN	NaN	NaN	NaN
15554.354	NaN	NaN	NaN	NaN
15558.335	NaN	NaN	NaN	NaN
15562.339	NaN	NaN	NaN	NaN
15566.344	NaN	NaN	NaN	NaN
15570.340	NaN	NaN	NaN	NaN
15574.241	NaN	NaN	NaN	NaN
15578.344	NaN	NaN	NaN	NaN
15582.308	NaN	NaN	NaN	NaN
15586.345	NaN	NaN	NaN	NaN
15590.369	NaN	NaN	NaN	NaN
15594.341	NaN	NaN	NaN	NaN
15598.343	NaN	NaN	NaN	NaN
15602.346	NaN	NaN	2.70099	14.02590
15606.311	NaN	NaN	6.15245	13.50935
15610.345	NaN	NaN	4.45459	13.06660
15614.304	NaN	NaN	4.20978	13.45136
15618.346	NaN	NaN	3.12155	12.98224
15622.304	NaN	NaN	3.56845	8.77950
15626.348	9.56530	11.19501	1.16270	8.90361
15630.343	-4.59046	13.08684	4.32770	10.73097
15634.342	NaN	NaN	7.03729	9.20575
15638.342	-6.26593	10.65267	4.40221	10.78435
15642.342	3.14023	11.05495	3.34326	11.14652
15646.340	0.84932	12.59057	0.52987	9.21545
15650.341	-1.11526	11.73037	4.38127	10.59989
15654.241	-0.36750	12.23509	3.21854	8.97503
15658.344	0.86783	10.92398	3.52761	10.69378
15662.342	-0.25738	9.31949	0.24832	9.32143
15666.342	-1.05835	10.49032	-0.27304	7.31787
15670.251	-0.98586	10.54115	2.93955	9.65876
15674.345	-0.39437	10.25726	2.57793	11.07406
15678.344	-0.31305	9.76518	2.46335	9.13290
15682.343	-0.90272	9.58556	1.99882	7.36764
15686.242	-0.36107	10.38311	2.41177	9.73226
15690.306	-0.46068	9.92369	2.38385	11.98754
15694.343	-0.57975	9.20310	1.99820	12.67646
15698.324	-1.07949	9.90198	2.14099	8.40276
15702.241	-0.53428	10.37684	1.95683	10.58004
15706.311	-0.86883	10.28507	2.05985	9.31136
15710.344	-0.41338	9.81478	2.17898	10.33404
15714.341	-0.48922	10.15862	2.41687	12.17677
15718.346	-0.31114	9.50559	2.17824	12.26039
15722.342	-0.41231	9.11861	2.10602	12.79185
15726.348	-0.16107	8.84461	-0.60188	8.37392
15730.347	-0.43907	9.46574	-0.33928	9.46739
15734.347	-0.67632	9.93282	1.97302	12.70454
15738.348	-0.20797	9.20706	2.24735	12.25907
15742.349	-0.39464	9.86385	2.34275	12.12464
15746.333	-0.14104	9.75953	2.50093	12.00807
15750.247	-0.32717	10.15317	2.41685	12.10008
15754.345	-0.23333	9.80421	2.11859	11.85723
15758.307	-0.05956	9.47316	2.13462	12.11684
15762.346	-0.59382	9.40617	1.79854	12.14617
15766.348	-0.38966	9.49340	1.16096	12.13797
15770.344	-0.13471	9.54302	1.49292	12.67352
15774.346	-0.15310	10.04590	1.78922	11.87871
15778.346	0.66012	9.94286	1.99211	12.12637
15782.347	0.01437	10.05755	1.80903	11.64792
15786.343	-0.07299	8.85621	1.80970	10.41191
15790.345	-0.21055	9.56188	2.47536	8.89729
15794.306	-0.18544	9.94673	2.02569	10.39501
15798.245	-0.35315	10.29703	1.45227	10.54712
15802.347	-0.42177	10.78156	1.22591	12.57923
15806.349	0.55396	8.90661	1.36519	13.22037
15810.347	0.07458	9.59131	1.63921	9.98675
15814.348	0.12667	10.41420	1.82837	9.34911
15818.344	-0.70260	10.15388	1.78535	10.32166
15822.347	-0.02628	10.01695	1.98452	11.83902
15826.309	-0.72042	10.43429	1.82666	12.99674
15830.329	-0.71439	9.90140	1.87867	9.44852
15834.343	0.27525	9.27373	1.73951	12.16447
15838.349	0.36392	10.24979	1.50495	10.11415
15842.346	0.24363	9.20496	1.66321	9.68458
15846.352	0.25028	10.06747	1.46819	12.86860
15850.345	0.33161	9.61974	1.60345	9.33099
15854.347	-0.56917	10.41788	1.43964	12.64449
15858.346	-0.70727	9.73220	2.17685	8.29641
15862.314	-0.67069	10.15794	2.18533	12.45280
15866.309	0.15613	9.48244	2.45775	8.69320
15870.338	0.58401	10.29814	2.33351	12.47555
15874.340	1.60533	9.55106	3.06706	9.64468
15878.245	3.13187	10.16901	4.33058	12.69367
15882.347	3.93226	10.05738	4.74984	9.71987
15886.329	5.70996	10.31807	5.32597	12.75636
15890.348	5.78354	9.60001	7.73424	10.00456
15894.243	5.24434	10.32740	7.83052	13.11731
15898.346	4.79787	10.16362	8.53023	9.42714
15902.345	4.29544	10.60774	7.49903	12.91024
15906.352	5.32980	9.59221	7.67852	11.76665
15910.248	5.24671	10.37298	8.10245	11.09592
15914.320	5.13053	10.67834	8.08005	11.78140
15918.347	5.66954	8.77349	8.02674	12.24130
15922.221	5.73347	9.89276	8.42452	9.98206
15926.246	5.10935	10.17279	8.27180	10.10627
15930.224	5.61215	10.16431	8.09139	11.31614
15934.221	5.60866	10.39611	7.79995	11.04546
15938.225	5.37692	10.51861	7.94898	12.22556
15942.245	5.26962	10.40993	7.76384	12.39686
15946.225	5.80774	10.36485	7.90338	12.31216
15950.222	5.51742	10.50968	7.71018	11.54597
15954.224	5.27176	10.20894	7.62304	10.58842
15958.222	5.23984	9.66805	7.66331	11.85073
15962.186	5.07020	8.57694	7.68779	8.19601
15966.224	4.90888	10.56754	7.63852	7.56735
15970.221	5.34329	10.20114	7.60158	12.60248
15974.215	4.84602	9.13978	7.48771	11.06319
15978.224	5.46851	9.16511	7.47729	9.41336
15982.225	5.38882	10.37581	7.50669	7.76225
15986.225	5.29843	9.12053	7.21958	12.30699
15990.251	5.44153	7.94143	5.91700	10.56249
15994.221	5.74561	9.80492	7.35236	7.29151
15998.229	5.91437	9.09943	7.02739	10.69987
16002.206	6.24421	9.83631	6.28337	10.95042
16006.198	5.70428	10.00578	7.11420	9.32667
16010.223	5.74814	9.16207	6.51013	12.77782
16014.225	5.76667	10.18556	5.92009	10.37711
16018.223	5.67116	9.53213	6.52583	9.71523
16022.219	5.74706	9.12145	6.72000	11.16208
16026.222	4.80352	9.96595	6.81554	9.25566
16030.187	5.58457	9.18516	8.71191	10.03058
16034.223	5.56534	10.12494	6.98069	9.66390
16038.223	6.17359	9.43292	7.40430	11.52654
16042.227	5.38275	9.56590	8.47532	10.53980
16046.186	5.49834	10.22747	8.68060	9.48688
16050.225	5.42641	9.13141	7.25350	11.60886
16054.250	5.19598	9.63081	7.02083	12.50762
16058.222	4.54424	9.83129	7.09140	9.51040
16062.222	2.80570	9.20263	4.33016	9.02728
16066.227	0.61034	10.55240	1.80162	12.05271
16070.216	-1.53721	10.38600	-2.17341	10.67640
16074.226	-1.62765	9.42760	-2.66957	8.61978
16078.227	-4.42809	8.74936	-5.18545	9.30804
16082.224	-5.80317	10.35594	-4.90449	10.42188
16086.248	-6.92320	8.78064	-7.03296	10.27373
16090.224	-7.18345	8.95743	-8.26991	8.99700
16094.223	-8.09769	9.17524	-8.43610	9.13892
16098.188	-8.13553	8.48484	-8.28131	8.22556
16102.251	-8.02740	8.05513	-8.31623	8.26162
16106.189	-7.71613	8.41517	-8.07691	7.56414
16110.220	-7.91100	8.50102	-8.16369	7.34459
16114.227	-7.85088	7.03893	-7.81064	7.55741
16118.224	-7.75395	7.37629	-7.40677	7.43820
16122.227	-7.91930	7.41185	-7.77281	7.26845
16126.225	-7.91670	7.03795	-7.64544	6.58434
16130.222	-7.75059	7.85723	-7.76170	6.95890
16134.257	-8.36934	7.06790	-7.48605	7.11244
16138.228	-8.11070	7.79527	-7.54664	7.26373
16142.226	-8.20658	8.26138	-7.54281	7.15917
16146.226	-8.20914	8.35700	-7.39523	7.36106
16150.248	-8.29526	8.66939	-7.42263	8.85593
16154.226	-8.26038	9.43781	-7.41158	8.44268
16158.228	-8.15740	9.60126	-7.39239	8.26077
16162.228	-8.31083	8.90836	-7.53491	8.70468
16166.232	-8.09197	8.48301	-7.65800	8.68909
16170.226	-8.28230	8.36852	-8.03540	9.06384
16174.196	-8.23741	6.33382	-7.83863	9.19661
16178.224	-8.23233	6.67766	-7.72919	9.46038
16182.187	-8.24230	7.78351	-8.05414	10.87308
16186.227	-8.04382	7.85016	-7.67197	10.77358
16190.227	-8.09435	7.98229	-7.60390	9.39131
16194.225	-7.72329	7.87934	-7.61436	9.43833
16198.250	-7.75059	8.00003	-8.07506	10.53256
16202.226	-7.79585	7.85816	-8.10416	10.40983
16206.229	-7.84591	7.76657	-8.28376	10.03922
16210.226	-7.94299	7.63453	-8.18529	10.51380
16214.206	-7.99486	7.32896	-7.88154	10.05130
16218.229	-8.01277	7.55200	-8.10046	9.08579
16222.226	-8.25093	7.60665	-8.36989	9.36880
16226.228	-8.06411	7.61752	-8.15341	9.26851
16230.251	-8.10659	7.59376	-8.25547	9.66431
16234.192	-8.21162	7.68471	-8.11277	9.00287
16238.211	-8.05168	7.64177	-8.15637	9.25878
16242.226	-8.08394	7.70172	-7.96295	8.66877
16246.221	-8.15579	7.64057	-7.72108	7.97639
16250.227	-8.12588	7.57605	-7.39410	8.11112
16254.222	-8.17286	7.41003	-7.95850	7.70330
16258.227	-8.17551	7.35054	-7.53086	7.86026
16262.255	-8.06633	7.21998	-7.66819	7.91918
16266.229	-8.04582	6.90343	-7.90177	8.01136
16270.229	-8.00832	6.70051	-7.58703	7.79809
16274.228	-8.10856	7.74013	-7.55966	8.33223
16278.254	-8.19484	7.51703	-7.63828	11.03202
16282.229	-8.07528	7.86052	-7.49668	9.43483
16286.229	-8.10155	7.86281	-7.62158	10.76422
16290.226	-8.22212	9.31316	-7.59814	10.74884
16294.249	-8.21417	8.27355	-7.65285	10.71907
16298.230	-8.21339	9.06133	-7.72400	10.68336
16302.191	-8.20544	8.83017	-7.76672	10.92405
16306.189	-8.23724	8.15604	-7.41765	8.34400
16310.228	-8.14327	6.52413	-7.75307	8.43528
16314.227	-8.18852	7.68776	-7.27680	8.44911
16318.227	-7.98160	6.17923	-7.76642	8.83711
16322.229	-7.77946	7.47380	-7.84333	9.57082
16326.251	-7.93542	6.81923	-7.59732	9.01687
16330.232	-7.41931	7.67338	-7.86534	9.64659
16334.211	-7.56739	8.18009	-7.45880	9.80718
16338.228	-7.52057	8.36531	-7.19078	10.56139
16342.230	-7.80701	8.65698	-6.90207	11.25159
16346.229	-8.02144	7.06239	-7.50095	9.24987
16350.230	-7.44696	6.96128	-7.75729	10.23302
16354.229	-6.04799	7.82410	-6.82082	9.62746
16358.252	-3.27838	8.13176	-4.26682	7.65317
16362.228	-1.86865	7.73540	-3.77352	8.15572
16366.230	-0.65982	8.12840	0.38271	7.94825
16370.192	1.62108	8.35143	0.64096	7.89170
16374.220	2.05982	8.28709	4.44647	7.36845
16378.233	5.87899	8.25848	4.65402	7.77777
16382.232	6.77778	8.34383	7.13324	7.82090
16386.232	5.76195	8.13758	7.31223	7.65072
16390.196	6.24121	8.29743	7.32629	7.46859
16394.231	5.47252	8.27888	7.05655	7.68321
16398.230	5.10352	8.42943	6.90566	7.25141
16402.228	5.35694	8.40595	6.95484	7.13909
16406.195	5.80369	8.35055	7.11640	6.94994
16410.233	5.52546	8.34410	7.31040	6.67779
16414.230	5.38501	8.27784	7.52896	5.55249
16418.228	5.55880	8.17294	7.23958	4.65729
16422.235	5.53385	8.12893	5.21269	7.64236
16426.230	5.53677	8.07835	5.24607	7.58357
16430.229	5.66781	7.88333	6.30286	9.92577
16434.228	5.64965	7.80633	5.39091	7.11003
16438.230	5.66664	7.43525	5.79705	7.81434
16442.230	5.73917	7.52180	6.74131	11.75470
16446.230	5.88555	7.31491	5.53719	11.30471
16450.230	5.81044	7.25408	6.94244	12.02367
16454.238	5.75903	7.10854	6.69674	10.63108
16458.233	5.90114	7.05958	6.31512	11.00880
16462.221	5.97970	6.90275	6.02195	10.94439
16466.230	6.11248	6.76062	6.67906	10.64173
16470.226	6.22309	6.58257	6.65987	10.32166
16474.232	6.14359	6.72195	6.27201	10.36228
16478.234	5.97867	6.86225	6.67084	9.14262
16482.235	5.87231	8.82412	5.89404	9.59520
16486.224	6.06529	7.93034	6.34275	8.79994
16490.229	6.14295	8.11973	6.14800	8.30420
16494.235	5.77824	7.65771	6.60735	7.53398
16498.232	5.22409	7.49659	6.40383	6.94586
16502.222	5.38120	7.72277	5.93330	7.49293
16506.233	6.17224	7.64365	6.50795	4.58376
16510.237	5.77654	6.95122	6.75255	4.87568
16514.229	5.87484	7.35722	6.36060	7.70728
16518.224	6.27022	7.24111	6.39626	10.38710
16522.230	6.26181	6.37234	6.43704	10.36653
16526.234	2.97643	7.62805	5.99215	10.51574
16530.232	2.50794	7.73148	5.65381	10.26146
16534.231	5.21464	8.22406	5.69767	9.40687
16538.235	5.43433	8.16077	6.46686	7.51086
16542.217	6.03056	9.23096	5.93267	7.87145
16546.230	6.23952	9.21790	6.96856	7.85534
16550.231	6.31988	9.10620	7.08906	7.84258
16554.232	5.97317	9.15919	6.66888	7.68867
16558.234	5.66614	8.92941	6.99988	7.37144
16562.231	5.79332	8.82015	7.44735	7.07708
16566.233	4.85349	8.73435	7.60002	7.64091
16570.232	5.18463	8.53591	6.33103	7.50499
16574.196	5.69234	8.34669	6.06421	6.73785
16578.232	5.15049	8.54162	6.64751	6.23539
16582.237	4.93455	8.94216	6.71583	6.42451
16586.230	4.48826	8.62854	6.37403	6.46683
16590.233	4.85369	8.49119	6.27834	5.79306
16594.233	4.67414	8.56107	6.73277	5.49165
16598.235	4.90612	8.35271	7.14902	4.87394
16602.234	5.21429	8.12102	6.17901	10.18449
16606.233	5.14210	7.86714	6.28479	10.13737
16610.204	5.26093	7.64234	6.53215	8.81901
16614.233	4.72278	8.28505	6.82417	8.62755
16618.231	4.76524	8.09621	6.28722	8.34382
16622.232	4.58244	8.60908	6.11351	6.39022
16626.235	5.05373	8.23110	6.61638	6.10620
16630.205	4.92494	8.20866	6.02367	6.70543
16634.232	5.32139	7.82985	6.28354	6.47618
16638.233	5.48895	8.03670	7.19549	5.94645
16642.234	2.48118	8.35881	7.74917	6.03485
16646.237	5.38781	8.57421	7.24442	11.04235
16650.232	4.64788	8.83733	7.12601	9.13480
16654.234	4.18519	8.52443	7.13292	10.57251
16658.198	4.74523	8.42558	6.72658	10.24610
16662.135	4.91821	8.37592	6.38592	10.73889
16666.222	4.79610	8.38682	5.66273	10.41690
16670.237	5.16777	8.36056	5.74780	10.20809
16674.197	2.55668	8.55091	6.02580	10.23780
16678.132	2.44192	8.76216	7.40247	9.94795
16682.235	4.20432	8.73367	6.95607	9.76531
16686.236	4.67668	8.74997	6.66871	9.68468
16690.235	4.92095	8.56660	6.06691	10.38325
16694.236	5.30116	8.58305	6.59897	10.95137
16698.268	2.62595	9.64671	6.43006	12.01048
16702.233	4.36316	10.49733	7.04526	12.23625
16706.237	5.17014	11.76379	6.98798	13.10454
16710.207	11.67770	11.93895	7.01338	13.56119
16714.233	13.09212	11.98956	10.58718	13.50814
16718.234	15.30725	13.12350	9.98172	9.45439
16722.233	15.24041	13.34159	7.18440	9.84025
16726.236	15.55810	12.49817	6.45314	13.70346
16730.233	15.37130	12.73500	7.80479	13.65846
16734.237	6.67627	9.87521	7.28942	12.20091
16738.236	NaN	NaN	7.78630	9.03643
16742.137	6.32203	10.10466	4.04196	5.30775
16746.238	7.21034	9.53466	4.02994	4.69369
16750.220	11.01158	9.11221	2.68987	9.43347
16754.232	7.54527	9.49377	8.25744	4.57972
16758.136	6.11022	9.07007	7.80506	4.52924
16762.236	5.89885	9.02681	7.08888	4.17644
16766.236	4.46665	9.04341	5.11162	2.96198
16770.235	5.94889	8.74569	8.27207	1.74628
16774.136	4.83033	8.40627	8.17393	3.74142
16778.198	4.57684	7.79509	6.14999	3.65232
16782.233	1.93988	7.64835	6.82528	3.48678
16786.232	1.98348	7.48904	6.55628	4.16663
16790.134	2.18354	7.44138	6.33748	3.58994
16794.237	2.13222	7.16940	6.42023	2.12951
16798.199	2.99787	7.17759	6.16378	1.85975
16802.208	2.92755	6.95001	5.78725	3.48823
16806.134	3.11245	7.62169	5.85725	2.31493
16810.236	2.11856	7.08843	5.95717	4.81252
16814.238	2.43204	6.85101	6.49482	5.15711
16818.236	3.49139	6.35702	6.17860	3.23799
16822.134	3.78862	5.59584	5.13589	4.14501
16826.238	3.20993	6.08057	6.34339	3.87532
16830.237	2.09038	6.11667	6.50859	3.93363
16834.215	2.11326	6.60544	5.42291	1.85351
16838.129	2.66496	5.94977	5.56551	2.12333
16842.237	2.30263	6.58424	5.79106	0.75693
16846.236	1.79232	6.14811	5.17400	4.17519
16850.238	2.05918	6.24180	5.13370	3.77577
16854.134	1.65818	6.20295	4.89424	3.70268
16858.274	1.92339	6.43774	5.35719	4.31556
16862.236	1.89763	6.71070	5.46984	5.84519
16866.237	2.03925	6.69889	5.60568	5.20087
16870.135	2.02396	6.84385	6.53120	5.77772
16874.239	2.63722	6.73964	5.40764	5.64680
16878.227	3.06056	6.65106	5.19374	5.79509
16882.238	2.44784	6.97884	5.26056	5.15654
16886.142	2.48024	6.97664	4.91085	6.12421
16890.236	2.47338	7.14641	5.03686	5.70363
16894.237	3.08773	7.10017	4.70902	5.41541
16898.236	2.95609	7.07299	5.02758	6.39207
16902.136	3.24640	7.07410	5.02290	6.09930
16906.241	3.31224	6.89715	4.63489	6.33708
16910.247	3.44424	6.61468	4.72687	6.61234
16914.204	3.39517	4.53705	4.84307	6.32367
16918.138	3.40838	6.22173	5.18109	6.60999
16922.231	3.55862	6.19314	5.00201	6.67199
16926.236	3.53550	6.83513	4.65609	6.46129
16930.236	3.74666	6.69162	4.54908	5.86504
16934.140	3.66486	6.36854	4.77214	5.01545
16938.238	3.56791	6.37649	5.17014	4.54237
16942.237	3.12108	6.07034	5.07119	4.99400
16946.241	3.63972	5.87335	4.74688	3.59415
16950.136	3.55829	5.39516	6.35925	3.03682
16954.240	3.62267	4.69241	5.95761	2.95856
16958.115	3.56823	6.66847	5.58963	6.01159
16962.109	3.33028	6.28235	5.32503	4.98107
16966.113	3.40091	6.17441	5.61092	2.99757
16970.113	3.24370	4.69715	5.72244	3.09292
16974.115	3.34037	4.59671	6.34456	3.02159
16978.114	3.38296	5.52218	5.61367	2.52273
16982.113	3.40415	5.66540	5.92238	2.89069
16986.111	2.26906	5.21087	5.63773	5.79155
16990.111	2.29716	5.16452	5.54228	5.49398
16994.114	3.21970	4.45831	5.51309	4.32879
16998.137	3.15159	4.30522	5.01667	2.65536
17002.114	3.18071	5.99764	5.70920	1.20333
17006.117	3.25567	6.02547	6.09817	-0.09661
17010.115	3.07728	5.64358	4.48700	4.10476
17014.141	2.83150	5.83556	6.81546	5.90341
17018.115	2.96057	5.59564	6.59628	5.57531
17022.114	3.22141	5.52379	6.36165	5.82479
17026.112	3.45138	5.31926	5.33812	6.02885
17030.113	3.53518	5.05380	6.30438	6.09546
17034.115	3.54017	5.07907	5.76716	5.98515
17038.116	3.37583	5.01721	4.25717	6.23806
17042.121	3.24043	5.23230	5.80238	6.26961
17046.111	3.31996	5.43380	4.88037	3.97824
17050.114	2.72545	5.24948	5.42565	1.14316
17054.113	2.74640	5.36212	5.40661	1.38002
17058.117	2.97666	5.30570	4.97278	1.29128
17062.136	2.11076	5.12666	5.10000	2.90523
17066.114	2.12352	5.19588	4.77732	1.32146
17070.116	2.46020	5.35979	4.89109	1.21114
17074.116	2.19182	5.50221	4.98204	1.14357
17078.136	2.12568	5.61348	4.73352	2.98818
17082.115	2.07596	5.56702	6.20568	4.20538
17086.117	2.28680	5.54146	5.39743	4.27560
17090.091	2.21445	5.26358	5.76384	6.25325
17094.136	2.24713	5.49034	5.31765	5.59730
17098.117	2.41578	5.06260	5.45607	6.03255
17102.117	3.57508	4.30119	5.27427	5.90640
17106.081	3.69306	4.37738	4.76115	5.60285
17110.082	3.07577	4.23254	5.23612	5.69617
17114.121	3.21146	4.52820	6.17830	4.76558
17118.081	3.30106	4.26468	6.17163	4.64980
17122.116	2.80989	4.22592	5.70011	4.87145
17126.117	3.47534	4.18485	5.83255	4.68099
17130.097	3.49344	4.02894	5.93814	4.70385
17134.112	3.98262	4.14652	5.60757	5.21726
17138.115	3.29285	3.99627	4.85867	5.69481
17142.085	3.25738	4.10323	4.90156	5.71077
17146.115	3.55899	4.10227	4.96211	5.79968
17150.116	3.10772	4.08706	5.50068	5.53348
17154.117	3.05467	4.16068	5.62500	5.89400
17158.139	3.56714	4.09710	5.39716	5.79866
17162.116	3.29491	3.94548	5.40471	6.06448
17166.116	3.49421	4.06349	5.66531	4.28115
17170.078	3.23487	4.33075	5.54673	6.01755
17174.116	4.01751	4.49052	5.37763	6.07230
17178.115	4.96268	4.08397	5.49514	6.03177
17182.115	3.94779	4.34890	5.69472	6.13581
17186.080	3.63401	4.12559	2.34396	5.67953
17190.109	4.12332	4.46677	5.62087	5.75558
17194.116	3.98637	4.37312	5.36053	6.62174
17198.115	3.79569	4.03445	4.90572	2.85551
17202.118	3.75042	4.46901	5.81334	1.66004
17206.110	3.74594	4.53151	4.76606	2.44035
17210.116	3.57627	4.56381	5.68096	1.09562
17214.092	3.86116	4.58552	5.52854	1.25181
17218.117	3.51102	5.24357	4.99856	1.93762
17222.108	4.07878	4.83880	5.91941	2.85636
17226.129	3.86669	5.96228	5.67592	2.89782
17230.116	3.65062	6.11422	5.57950	5.41720
17234.114	3.68028	4.52529	5.21612	1.60695
17238.078	3.52687	3.39668	4.89316	0.14098
17242.120	3.65463	4.36909	5.89399	-0.45129
17246.115	3.79836	4.52126	4.90848	0.72042
17250.118	3.56044	4.89480	4.89005	1.67398
17254.077	3.64639	5.43350	5.72564	2.98316
17258.108	3.55748	5.05523	5.60752	3.29735
17262.116	3.99830	5.16128	5.62702	3.70791
17266.117	3.78150	5.45818	5.58956	6.14078
17270.118	4.51857	7.11710	4.97758	5.23029
17274.117	0.25448	7.91371	5.90480	5.63900
17278.116	0.75997	5.26536	2.28586	5.99167
17282.116	0.16573	5.45726	2.35355	4.99848
17286.110	-0.10319	5.06860	1.51467	5.25931
17290.118	-0.41249	5.25442	0.40472	5.07929
17294.125	-3.79322	4.08886	-0.04678	5.27661
17298.081	-1.86146	4.21696	-0.57563	4.98588
17302.117	-2.19834	3.95586	-1.40234	5.19086
17306.119	-1.77295	3.62171	-1.05538	4.87224
17310.120	-2.03015	3.40481	-1.02250	4.76234
17314.124	-2.07140	3.75420	-1.18525	4.41375
17318.141	-2.18694	3.41966	-1.30814	4.31799
17322.082	-2.40924	3.42529	-0.82491	4.26082
17326.119	-1.85517	3.83759	-0.29473	4.91693
17330.122	-1.45509	3.91126	-0.61397	4.50594
17334.144	-1.97215	3.66866	-0.98797	4.94157
17338.097	-2.09482	3.73298	-1.18272	4.72046
17342.120	-2.36956	3.71090	-1.32319	5.16528
17346.117	-2.37840	3.96271	-0.96045	2.59363
17350.117	-2.87287	4.63407	-1.29814	1.86134
17354.117	-3.11754	4.80511	-0.86781	0.92331
17358.119	-3.18734	4.63426	-0.76962	1.28164
17362.120	-3.17329	5.17437	-1.24166	1.79223
17366.144	-2.79322	5.12605	-0.76491	2.19192
17370.120	-2.86594	5.05147	-1.22749	3.89088
17374.120	-2.77431	3.99184	-0.57853	3.57858
17378.116	-3.00891	3.53352	-0.19095	4.55018
17382.110	-2.77121	4.10720	0.88987	4.71275
17386.105	-2.98576	4.20967	0.20338	5.39435
17390.117	-2.67340	4.16154	-0.38172	5.90153
17394.119	-2.51440	3.99791	-0.60431	3.48970
17398.114	-2.68160	4.22852	-0.60861	1.71386
17402.118	-2.58581	4.14689	-0.34610	1.48386
17406.119	-2.55980	4.30820	-0.47689	1.35423
17410.122	-2.54695	4.06077	-1.33765	1.23100
17414.111	-2.81694	4.00189	-1.25520	1.33781
17418.122	-3.08117	4.17859	-0.86992	0.96797
17422.094	-2.88871	4.19485	-1.26150	1.00756
17426.120	-3.15911	4.16333	-1.49036	0.88908
17430.115	-3.26925	4.13021	-1.03059	-0.19404
17434.119	-3.28949	4.07086	-1.24969	-0.61880
17438.121	-3.51345	3.80897	-1.09056	0.32973
17442.120	-3.29221	3.63267	-1.22752	4.79832
17446.113	-3.57990	3.62021	-1.34065	4.60394
17450.121	-3.26643	3.31200	-1.21556	6.21998
17454.120	-3.18049	3.14343	-1.26123	6.86451
17458.123	-2.90431	3.38732	-0.96512	5.08217
17462.082	-3.22445	3.37828	-0.89403	5.12280
17466.117	-3.08971	3.38517	-0.93827	5.41300
17470.117	-2.41051	3.49539	-0.62833	5.92722
17474.116	-2.87915	3.34679	-0.71474	2.51538
17478.118	-2.43491	3.60235	-0.40365	3.21632
17482.121	-2.53972	3.69794	-0.24420	3.07156
17486.125	-2.49771	3.79311	-0.40435	3.55989
17490.120	-2.32830	3.84141	-0.42475	2.83260
17494.116	-2.18230	4.06090	-0.33201	2.63236
17498.120	-2.50895	3.93198	-0.86699	2.75953
17502.122	-2.13762	4.15949	-0.30535	2.74734
17506.089	-2.17204	4.19849	-0.29419	2.68337
17510.118	-2.07006	4.16384	-0.28481	3.16354
17514.085	-2.29151	4.27236	-0.43708	2.74467
17518.123	-2.04270	4.40217	-0.40909	2.95862
17522.124	-1.99768	4.35716	-0.36975	3.02019
17526.088	-2.10015	4.27177	-1.07937	2.96089
17530.125	-2.55547	4.52547	-1.53111	2.67276
17534.123	-2.35898	4.29998	-1.20026	3.05380
17538.123	-2.06446	4.82549	-0.93038	3.57052
17542.127	-0.37762	5.17803	0.13250	3.78927
17546.100	2.66536	5.26926	1.53580	3.38783
17550.121	-0.47584	5.65569	2.12882	3.54184
17554.121	-0.07991	4.40105	2.09073	3.80239
17558.116	0.02608	4.59008	1.15908	4.15352
17562.125	0.32099	5.42794	1.71531	5.04082
17566.122	1.92785	4.16769	1.84161	5.51761
17570.120	2.11946	4.58989	2.07502	5.49620
17574.121	0.67221	4.19659	2.24074	3.94569
17578.124	0.26078	4.76050	2.09680	2.69197
17582.121	0.43053	4.64274	1.87396	3.20463
17586.121	0.90321	4.62091	2.00286	3.05588
17590.117	0.57223	5.44672	2.26336	3.52206
17594.124	0.89272	5.15040	2.05566	2.47242
17598.121	1.00422	5.28339	2.32303	2.93440
17602.123	1.03446	5.01136	2.69235	2.79190
17606.089	0.46147	5.38340	2.28950	3.30508
17610.125	0.54267	5.75628	2.49852	2.88541
17614.082	1.01002	6.08781	2.57563	2.75870
17618.125	1.29784	5.61707	2.35920	1.92467
17622.117	0.84272	5.49446	2.47987	1.44054
17626.124	0.89356	5.63495	2.70012	0.83030
17630.097	0.65022	5.14668	2.68980	0.49635
17634.123	0.58664	5.40349	2.73920	-0.06771
17638.128	0.57369	4.94376	0.94986	2.78956
17642.125	0.54602	4.85474	0.86359	2.42125
17646.125	0.30307	4.73758	2.34790	6.38613
17650.123	0.44328	4.27010	1.75872	6.28907
17654.091	0.51314	4.06523	1.28772	5.98672
17658.124	0.43949	3.06005	1.76031	4.32382
17662.125	0.38373	3.96734	2.10771	4.14850
17666.123	0.31538	3.84038	2.17705	3.84744
17670.024	0.38382	3.35700	2.15138	2.84287
17674.086	0.58736	3.43329	1.90943	2.82108
17678.088	1.06634	3.02716	1.99776	3.10048
17682.125	1.26989	2.81870	2.09368	2.69671
17686.026	-0.35151	2.73101	2.29077	2.57047
17690.123	-0.62129	3.30616	2.40320	1.81281
17694.125	-0.83776	2.96953	2.28603	2.40577
17698.203	0.06673	3.35846	2.07878	1.72208
17702.125	1.18711	3.66225	2.15608	1.99590
17706.126	-0.71208	4.01106	2.26096	1.69846
17710.127	0.88647	3.37941	2.33787	2.72233
17714.089	1.20472	3.63397	2.04418	2.62610
17718.006	1.09969	3.95656	2.06285	3.18166
17722.121	0.99082	4.04229	1.95579	3.11150
17726.122	-0.42621	4.01504	2.01320	3.39755
17730.120	0.87619	3.78711	1.84604	3.34573
17734.023	0.55600	3.90098	1.97436	3.39439
17738.125	0.77238	3.76452	1.86464	3.39082
17742.128	1.16376	3.66867	2.09762	2.57179
17746.127	1.11861	3.57326	1.97748	3.12181
17750.130	1.19790	3.54524	2.15916	3.08880
17754.105	1.00137	3.20625	1.99077	2.83657
17758.124	0.56108	3.42528	2.09685	1.97832
17762.124	1.16478	3.14131	2.15128	0.75576
17766.022	0.49421	3.42618	2.08109	-0.38982
17770.127	0.18164	3.38140	2.19841	-0.60138
17774.125	0.28165	3.61768	-0.51312	2.71196
17778.124	0.49106	3.80191	2.41033	3.35871
17782.024	0.11607	4.12707	2.34679	6.02017
17786.124	0.00968	4.26887	2.33527	5.73749
17790.126	0.39268	4.25765	2.32947	5.60543
17794.124	0.47909	4.20210	1.86950	5.15066
17798.025	0.37928	4.52939	1.65106	4.87879
17802.127	0.14171	4.63182	1.83652	4.23561
17806.103	0.07066	4.69929	1.95639	4.23826
17810.128	0.09684	4.76350	2.08818	3.74501
17814.024	0.12898	5.03758	2.22798	3.22105
17818.130	0.16040	4.92085	2.06505	3.65997
17822.126	0.34330	4.88632	2.03643	2.84722
17826.125	0.36419	4.85052	1.97708	3.03492
17830.131	0.68238	4.99034	2.27855	3.09794
17834.126	0.49545	4.93238	2.11200	2.81104
17838.128	0.50552	4.82028	2.49379	2.54675
17842.128	0.32439	4.89205	2.28695	2.59126
17846.131	0.60878	4.72171	2.44881	2.50503
17850.129	0.84389	4.21437	2.21041	2.94718
17854.126	0.70625	4.22540	2.26844	2.44835
17858.126	0.65982	4.14875	2.23474	2.58028
17862.131	0.58121	3.90050	2.86900	3.85239
17866.126	0.34030	3.82390	2.51695	4.84916
17870.127	0.31062	2.94916	0.43681	5.75207
17874.131	0.42688	3.48640	2.40625	5.86301
17878.033	0.44812	4.48448	1.78818	4.99010
17882.119	0.72925	3.26414	1.70469	4.67539
17886.127	0.51056	5.40841	1.93194	3.85970
17890.128	0.06711	6.04302	1.60315	3.55898
17894.027	0.49647	4.58487	1.18527	3.09023
17898.130	0.39787	3.95333	2.00564	2.91443
17902.130	0.58717	4.36686	2.15494	2.81899
17906.130	0.43559	4.44579	1.79718	2.34861
17910.030	0.51086	4.51985	1.85269	1.93090
17914.128	0.50267	4.42616	1.84852	2.04387
17918.131	0.20489	4.35891	1.79956	1.89226
17922.128	0.19387	4.07175	2.01719	1.79874
17925.993	0.34742	4.49303	2.24170	1.97349
17930.128	0.46763	4.28971	2.50221	1.95789
17934.093	-0.10381	4.32543	2.43290	2.07818
17938.127	0.28257	4.22468	2.61947	2.19013
17942.031	0.22775	4.40137	1.97765	1.90975
17946.132	0.17199	4.47343	2.17299	1.85450
17950.124	0.16010	4.67642	2.61907	2.14938
17954.133	0.30337	4.37286	2.61635	1.98492
17958.130	0.72692	4.99624	2.77616	3.02438
17962.108	0.57079	7.16816	2.81934	5.69308
17966.126	-3.31536	8.67814	11.73807	2.35693
17970.126	1.26706	11.29695	8.41388	4.80475
17974.031	NaN	NaN	1.09435	10.24710
17978.127	NaN	NaN	NaN	NaN
17982.129	NaN	NaN	NaN	NaN
17986.127	NaN	NaN	NaN	NaN
17990.071	NaN	NaN	NaN	NaN
17994.129	NaN	NaN	NaN	NaN
17998.134	NaN	NaN	NaN	NaN
18001.983	NaN	NaN	NaN	NaN
18005.996	NaN	NaN	NaN	NaN
18009.966	NaN	NaN	NaN	NaN
18014.000	NaN	NaN	NaN	NaN
18018.027	NaN	NaN	NaN	NaN
18022.004	NaN	NaN	NaN	NaN
18025.967	NaN	NaN	NaN	NaN
18030.004	NaN	NaN	NaN	NaN
18034.003	NaN	NaN	NaN	NaN
18038.004	NaN	NaN	NaN	NaN
18041.967	NaN	NaN	NaN	NaN
18046.009	NaN	NaN	-0.13885	11.54731
18050.000	NaN	NaN	-2.15849	8.44407
18054.004	NaN	NaN	0.09418	6.94161
18058.004	14.54870	8.56452	0.08373	7.40315
18062.008	-3.37178	7.22307	0.08252	5.25044
18065.999	-6.32512	5.47796	0.21959	0.74123
18070.005	-6.34616	11.72270	0.13493	4.78605
18074.006	-6.08990	5.52466	0.16521	1.83070
18078.006	5.82903	6.99461	0.26617	0.97289
18082.027	-4.64761	10.70402	-1.43714	2.95177
18086.004	3.50553	5.98448	0.28277	2.34318
18090.004	3.00180	5.31709	-1.78384	2.92285
18093.973	1.23826	5.67886	-1.88125	2.95673
18098.000	1.26483	5.41652	-2.24388	1.69143
18102.007	1.04086	5.57912	-2.30752	1.41194
18106.008	-1.74434	5.41423	-2.52731	6.06684
18109.967	-1.63742	5.27868	-2.44878	3.39145
18114.005	0.79243	5.90331	-2.44053	3.33781
18118.007	-1.70452	6.48562	0.26748	6.53659
18122.009	-1.68540	6.03898	0.23398	4.23454
18126.007	-1.19887	5.95052	-0.01720	6.15926
18130.001	-1.32463	5.94124	-0.10575	5.63358
18133.986	-1.43644	5.87367	-0.04264	5.03962
18138.006	-1.51107	5.63403	-0.07969	5.30644
18142.007	-1.33959	5.76506	-0.06626	4.70684
18145.998	-1.55167	5.83206	-0.17797	5.52467
18150.007	-0.34752	6.10729	-0.11118	5.31127
18154.005	-0.98720	6.07287	-0.14397	5.29978
18158.007	-0.57287	5.72354	-2.54504	3.95260
18161.999	-0.31374	5.57550	-1.52412	1.58248
18166.008	-0.97457	5.53486	-2.38489	1.82848
18170.009	-0.78429	3.19502	-1.70636	1.72583
18173.999	-0.78610	2.71345	-0.30506	0.64264
18178.004	-0.91123	2.61576	-0.69129	1.09352
18182.004	-0.73389	3.30537	-1.26108	1.79435
18186.015	-0.68434	3.02521	-0.92316	1.15113
18190.006	-0.40479	3.09245	0.90741	0.05041
18194.002	-0.48215	3.19117	-0.83319	1.61492
18198.007	-0.62156	3.17477	0.18127	0.69671
18202.007	-0.76404	3.14492	1.02365	0.09478
18206.022	-0.82466	3.17259	0.84255	0.15969
